Program Time [s],Connection ID,Time High,Time Low,Low-g Accelerometer X,Low-g Accelerometer Y,Low-g Accelerometer Z,Roll,Pitch,Yaw,Magnetometer X,Magnetometer Y,Magnetometer Z,High-g Accelerometer X,High-g Accelerometer Y,High-g Accelerometer Z
3655.69,0,57,20286,239,-542,-3997,73,-37,15,32161,28686,32763,-4,-2,0
3655.72,0,57,20302,238,-545,-3995,59,-39,8,32163,28685,32760,-2,-5,0
3655.72,0,57,20317,246,-538,-4002,61,-35,-4,32161,28687,32764,-5,-4,0
3655.75,0,57,20332,249,-538,-3990,36,-42,11,32163,28686,32761,-5,-5,0
3655.75,0,57,20347,238,-545,-3986,34,-54,-2,32161,28688,32761,-2,-7,0
3655.78,0,57,20363,244,-546,-4005,41,-37,-3,32160,28686,32757,-4,-5,0
3655.78,0,57,20378,244,-544,-4002,45,-25,7,32163,28686,32761,-6,-3,0
3655.81,0,57,20393,245,-545,-3983,39,-30,-3,32161,28687,32761,-3,-8,0
3655.81,0,57,20408,239,-541,-3995,9,-50,3,32161,28691,32764,-2,-2,0
3655.84,0,57,20423,241,-542,-4007,39,-36,7,32162,28685,32758,-1,-5,0
3655.84,0,57,20439,242,-545,-3990,32,-34,4,32161,28688,32763,-1,-6,0
3655.87,0,57,20453,246,-542,-3999,31,-43,11,32161,28686,32761,-5,-5,0
3655.87,0,57,20469,242,-542,-3996,46,-38,-2,32160,28690,32761,-3,-4,0
3655.9,0,57,20484,244,-542,-3980,34,-42,-2,32163,28687,32762,-4,-5,0
3655.9,0,57,20499,245,-538,-4000,26,-52,-9,32162,28688,32761,-2,-6,0
3655.93,0,57,20514,238,-546,-4005,38,-34,-2,32161,28687,32761,-2,-3,0
3655.94,0,57,20530,246,-542,-3997,34,-15,4,32162,28684,32763,-2,-5,0
3655.96,0,57,20545,244,-545,-4000,28,-33,-10,32162,28686,32762,-5,-5,0
3655.96,0,57,20560,240,-541,-3978,24,-35,9,32162,28689,32761,-1,-5,0
3655.99,0,57,20575,242,-542,-4001,43,-38,11,32163,28687,32763,-5,-5,0
3656,0,57,20590,242,-548,-4001,18,-43,12,32162,28687,32761,-3,-1,0
3656.02,0,57,20606,241,-541,-3990,25,-33,0,32161,28685,32763,-1,-2,0
3656.03,0,57,20620,244,-542,-4000,55,-64,0,32161,28690,32764,-5,-5,0
3656.05,0,57,20636,245,-544,-4009,34,-44,11,32161,28688,32763,-3,-7,0
3656.06,0,57,20651,248,-542,-3986,37,-31,-3,32163,28686,32764,-1,-2,0
3656.08,0,57,20666,240,-542,-3992,31,-48,15,32162,28685,32762,-3,-9,0
3656.11,0,57,20682,240,-540,-3999,33,-36,17,32161,28687,32762,-4,-7,0
3656.11,0,57,20697,247,-540,-3990,37,-61,1,32161,28684,32761,-1,-7,0
3656.12,0,57,20712,235,-544,-4005,40,-34,5,32161,28685,32762,1,0,0
3656.14,0,57,20727,246,-549,-3992,27,-31,5,32161,28688,32762,-5,-1,0
3656.15,0,57,20742,243,-537,-3992,38,-56,5,32163,28688,32764,-3,-6,0
3656.17,0,57,20757,244,-541,-4000,34,-32,-4,32161,28687,32763,-5,-6,0
3656.18,0,57,20773,239,-545,-3987,33,-57,0,32161,28686,32761,-3,-7,0
3656.2,0,57,20787,247,-547,-4012,48,-41,12,32160,28688,32763,-5,-3,0
3656.21,0,57,20803,243,-538,-3987,43,-21,7,32162,28687,32761,-7,-1,0
3656.23,0,57,20818,252,-541,-3988,37,-58,11,32161,28690,32764,-5,-6,0
3656.24,0,57,20833,240,-545,-4005,32,-47,29,32161,28687,32761,-1,-6,0
3656.26,0,57,20849,240,-547,-3988,61,-11,19,32162,28687,32762,-1,-3,0
3656.27,0,57,20864,248,-546,-4002,35,-32,-3,32160,28686,32761,-2,-7,0
3656.29,0,57,20879,242,-536,-4003,25,-32,6,32161,28685,32760,-3,-3,0
3656.3,0,57,20894,242,-541,-3992,45,-45,1,32163,28686,32760,-5,-1,0
3656.32,0,57,20909,243,-547,-3999,60,-40,3,32161,28689,32765,-4,-2,0
3656.33,0,57,20924,238,-537,-3996,18,-22,12,32163,28688,32759,-3,-6,0
3656.35,0,57,20940,244,-537,-3994,32,-28,7,32161,28686,32761,-3,-2,0
3656.36,0,57,20954,236,-549,-3993,55,-46,-3,32161,28687,32763,-7,-5,0
3656.38,0,57,20970,244,-541,-3981,28,-30,11,32163,28687,32761,-5,15,0
3656.39,0,57,20985,245,-537,-4002,30,-32,19,32161,28689,32764,-2,-5,0
3656.41,0,57,21000,238,-542,-3994,38,-30,12,32162,28687,32763,-4,-4,0
3656.42,0,57,21016,246,-540,-3998,35,-47,2,32162,28691,32765,-4,-4,0
3656.44,0,57,21031,237,-545,-4009,46,-32,9,32162,28688,32761,-6,-13,0
3656.45,0,57,21046,246,-544,-3979,13,-14,-7,32163,28686,32760,-3,-1,0
3656.47,0,57,21061,249,-544,-4002,33,-56,5,32162,28688,32762,-2,-5,0
3656.48,0,57,21076,243,-539,-3997,23,-14,-6,32163,28689,32761,-5,-4,0
3656.5,0,57,21091,249,-546,-3983,29,-41,5,32163,28685,32763,-4,-1,0
3656.51,0,57,21107,242,-539,-4002,-3,-40,-8,32160,28691,32766,-1,-6,0
3656.53,0,57,21121,241,-540,-3991,30,-44,-18,32161,28687,32761,-3,-9,0
3656.54,0,57,21137,245,-547,-4000,57,-48,7,32162,28686,32765,-2,-5,0
3656.56,0,57,21152,237,-545,-4000,24,-38,1,32160,28688,32761,-3,-4,0
3656.59,0,57,21167,246,-540,-3990,26,-32,-2,32162,28687,32763,-2,-8,0
3656.59,0,57,21183,244,-546,-4008,38,-49,7,32163,28687,32760,-6,-5,0
3656.62,0,57,21198,242,-535,-3984,33,-23,7,32163,28687,32763,-5,-5,0
3656.62,0,57,21213,245,-536,-4002,57,-45,4,32162,28690,32764,-4,-3,0
3656.65,0,57,21228,244,-544,-3986,52,-45,-12,32162,28685,32762,-3,-2,0
3656.65,0,57,21243,243,-545,-4000,16,-44,-18,32161,28688,32761,-2,-3,0
3656.68,0,57,21258,245,-541,-3997,56,-34,-14,32161,28687,32763,-1,-2,0
3656.68,0,57,21274,244,-542,-3991,38,-30,-7,32161,28686,32764,-1,1,0
3656.71,0,57,21288,248,-540,-4004,37,-62,-7,32161,28688,32764,-6,0,0
3656.71,0,57,21304,232,-545,-3992,38,-34,14,32161,28688,32763,-5,-7,0
3656.74,0,57,21319,243,-544,-4002,49,-27,3,32160,28689,32763,-1,0,0
3656.74,0,57,21334,246,-546,-3989,45,-58,2,32161,28687,32762,-1,-4,0
3656.77,0,57,21350,237,-540,-3994,32,-22,-13,32163,28684,32761,-3,-7,0
3656.77,0,57,21364,240,-547,-3995,30,-46,16,32161,28687,32759,-2,-5,0
3656.8,0,57,21380,247,-539,-3987,42,-45,-4,32161,28686,32759,-2,-8,0
3656.8,0,57,21395,247,-534,-4014,32,-41,4,32163,28687,32762,-5,-4,0
3656.83,0,57,21410,236,-553,-3978,57,-23,8,32161,28688,32763,-4,-3,0
3656.83,0,57,21425,244,-528,-3990,9,-61,20,32161,28684,32760,-3,-4,0
3656.86,0,57,21441,245,-540,-4023,24,-26,-2,32159,28687,32761,-1,-5,0
3656.86,0,57,21455,247,-547,-3970,86,-30,-9,32160,28689,32763,-1,-5,0
3656.89,0,57,21471,241,-546,-4014,23,-55,22,32162,28687,32760,-5,-5,0
3656.9,0,57,21487,242,-536,-3999,17,-36,-8,32161,28689,32762,-4,-5,0
3656.92,0,57,21501,246,-546,-3983,54,-27,19,32162,28686,32761,-6,-1,0
3656.92,0,57,21517,246,-548,-4014,24,-56,-15,32161,28688,32762,-4,-3,0
3656.95,0,57,21531,238,-538,-3975,61,-31,13,32162,28686,32760,-2,-5,0
3656.95,0,57,21547,250,-541,-4008,31,-46,-3,32163,28686,32763,-6,-4,0
3656.98,0,57,21562,247,-535,-4005,22,-45,5,32162,28686,32758,-3,-4,0
3656.98,0,57,21577,242,-541,-3987,57,-47,11,32163,28687,32763,-1,-5,0
3657.01,0,57,21592,242,-550,-4008,58,-17,-9,32161,28687,32761,-5,-2,0
3657.01,0,57,21608,245,-535,-3989,20,-32,5,32161,28690,32763,-2,-1,0
3657.04,0,57,21622,244,-530,-3992,28,-30,0,32164,28684,32759,-4,-6,0
3657.04,0,57,21638,243,-540,-3991,87,-27,-3,32161,28687,32763,-3,3,0
3657.07,0,57,21654,249,-553,-4017,32,-35,9,32164,28687,32762,-7,-5,0
3657.07,0,57,21668,246,-542,-3984,30,-34,3,32162,28688,32761,-4,-2,0
3657.1,0,57,21684,246,-541,-3992,28,-44,5,32162,28685,32761,-1,-5,0
3657.1,0,57,21698,239,-550,-3998,55,-61,-14,32161,28685,32762,-1,1,0
3657.13,0,57,21714,240,-546,-3997,27,-34,6,32162,28690,32762,-3,-2,0
3657.13,0,57,21729,245,-548,-3999,23,-18,-3,32162,28684,32764,-4,-2,0
3657.16,0,57,21744,255,-546,-3975,11,-55,17,32164,28687,32763,-5,-2,0
3657.16,0,57,21759,241,-544,-4002,20,-60,-2,32160,28688,32761,-3,-1,0
3657.19,0,57,21775,247,-542,-3999,55,-26,-8,32163,28687,32763,1,-2,0
3657.19,0,57,21789,239,-545,-3993,26,-31,3,32162,28687,32761,-1,-2,0
3657.22,0,57,21805,242,-538,-4002,52,-49,3,32162,28690,32762,-5,-5,0
3657.22,0,57,21821,243,-538,-3987,24,-32,11,32161,28690,32762,-6,-2,0
3657.25,0,57,21835,249,-546,-4006,42,-40,3,32161,28686,32763,-5,-4,0
3657.26,0,57,21851,243,-546,-4002,55,-42,13,32164,28687,32761,-1,-1,0
3657.28,0,57,21865,248,-545,-3989,40,-29,5,32163,28686,32759,-4,-4,0
3657.29,0,57,21881,250,-544,-4001,47,-27,-13,32164,28688,32761,-4,-5,0
3657.31,0,57,21896,252,-541,-3988,49,-46,5,32163,28687,32760,-7,-3,0
3657.32,0,57,21911,248,-548,-4001,47,-45,4,32163,28690,32764,-3,-3,0
3657.34,0,57,21926,242,-541,-3995,60,-47,-1,32163,28687,32759,-2,-3,0
3657.35,0,57,21942,243,-542,-4000,34,-54,-2,32163,28687,32758,-4,-6,0
3657.37,0,57,21956,237,-542,-3996,43,-40,4,32163,28687,32761,-1,-5,0
3657.38,0,57,21972,247,-541,-3982,47,-38,5,32163,28689,32764,-1,-5,0
3657.4,0,57,21988,250,-548,-4009,34,-32,15,32161,28686,32761,-2,-1,0
3657.41,0,57,22002,246,-540,-3978,30,-42,2,32164,28690,32763,-5,-3,0
3657.43,0,57,22018,249,-544,-3996,36,-34,7,32162,28688,32762,-3,-2,0
3657.44,0,57,22032,246,-547,-4014,38,-35,-5,32162,28688,32761,-5,-6,0
3657.46,0,57,22048,244,-547,-3989,40,-30,9,32162,28687,32761,-2,2,0
3657.47,0,57,22063,248,-546,-3997,24,-40,-1,32162,28688,32761,-5,-3,0
3657.49,0,57,22078,241,-541,-3992,50,-39,5,32163,28685,32759,-2,-3,0
3657.5,0,57,22093,244,-537,-3997,24,-26,5,32162,28686,32759,-2,-5,0
3657.52,0,57,22109,237,-549,-4014,16,-28,1,32162,28689,32763,-3,-4,0
3657.53,0,57,22123,242,-543,-3985,56,-32,2,32162,28687,32763,-2,-3,0
3657.55,0,57,22139,244,-545,-3999,46,-54,-4,32161,28687,32761,-1,-7,0
3657.56,0,57,22155,241,-541,-3982,31,-54,-2,32161,28688,32761,-2,-3,0
3657.58,0,57,22169,245,-546,-4002,62,-57,4,32162,28689,32761,-1,-2,0
3657.59,0,57,22185,246,-546,-4002,34,-49,9,32163,28686,32760,-1,-3,0
3657.61,0,57,22199,242,-546,-3984,36,-37,13,32162,28687,32761,-4,-5,0
3657.62,0,57,22215,245,-541,-3998,55,-46,-2,32163,28689,32762,-2,-1,0
3657.64,0,57,22230,238,-546,-3994,35,-42,8,32163,28686,32761,-5,-2,0
3657.65,0,57,22245,249,-545,-3995,18,-40,12,32163,28687,32764,-1,2,0
3657.67,0,57,22260,240,-542,-3994,45,-42,4,32162,28684,32758,-3,2,0
3657.68,0,57,22276,246,-546,-4000,32,-34,-1,32163,28688,32762,-4,-6,0
3657.7,0,57,22290,239,-540,-3996,43,-37,3,32162,28689,32763,-3,-6,0
3657.71,0,57,22306,240,-547,-4001,32,-44,10,32162,28688,32761,1,2,0
3657.73,0,57,22322,238,-544,-3991,42,-36,6,32164,28687,32762,-2,-6,0
3657.74,0,57,22336,248,-542,-4006,14,-43,-7,32163,28688,32761,-3,-4,0
3657.76,0,57,22352,241,-546,-3999,29,-11,-1,32163,28688,32761,-1,-5,0
3657.77,0,57,22366,249,-538,-3985,47,-67,-1,32163,28687,32763,-4,-8,0
3657.79,0,57,22382,245,-542,-3996,25,-56,16,32163,28686,32760,-4,-1,0
3657.8,0,57,22397,242,-542,-3995,45,-42,9,32163,28685,32759,-5,-3,0
3657.82,0,57,22412,246,-548,-3997,43,-34,4,32163,28686,32760,-5,-2,0
3657.83,0,57,22428,242,-546,-3993,24,-50,-5,32163,28687,32763,-5,-1,0
3657.85,0,57,22443,240,-546,-3996,44,-59,16,32162,28687,32761,-2,-4,0
3657.88,0,57,22458,238,-543,-3990,56,-40,4,32164,28688,32761,-2,-2,0
3657.88,0,57,22473,248,-549,-4009,22,-33,1,32163,28688,32761,-1,-5,0
3657.91,0,57,22489,241,-544,-3996,28,-42,7,32162,28687,32761,-1,-2,0
3657.91,0,57,22503,249,-539,-3987,45,-46,13,32163,28686,32763,-3,-9,0
3657.94,0,57,22519,244,-554,-4006,33,-40,4,32163,28689,32760,-3,-4,0
3657.94,0,57,22533,250,-546,-3984,32,-43,10,32162,28688,32763,-5,-9,0
3657.97,0,57,22549,247,-542,-4001,36,-26,11,32164,28687,32762,-4,-4,0
3657.97,0,57,22564,242,-544,-3997,48,-48,12,32164,28686,32761,-2,-5,0
3658,0,57,22579,243,-535,-3996,54,-43,9,32162,28685,32761,-1,-2,0
3658.01,0,57,22594,246,-545,-4017,32,-34,6,32164,28687,32761,-4,-3,0
3658.03,0,57,22610,238,-543,-3974,47,-51,1,32161,28689,32761,-4,-10,0
3658.03,0,57,22625,248,-539,-3987,31,-45,8,32163,28687,32761,-5,-2,0
3658.06,0,57,22640,248,-538,-4010,15,-41,-5,32162,28687,32760,-4,-7,0
3658.06,0,57,22656,244,-544,-3988,50,-50,5,32162,28687,32760,-5,-3,0
3658.09,0,57,22670,246,-549,-3995,49,-36,12,32161,28687,32761,-3,-1,0
3658.09,0,57,22686,237,-545,-4007,13,-55,10,32160,28688,32761,-2,-3,0
3658.13,0,57,22700,247,-541,-3970,46,-45,5,32163,28688,32759,-2,-3,0
3658.13,0,57,22716,241,-549,-3997,26,-42,2,32162,28690,32763,-3,-6,0
3658.15,0,57,22731,244,-545,-3998,33,-53,16,32163,28685,32761,-5,-2,0
3658.15,0,57,22746,243,-542,-4002,17,-42,2,32161,28687,32764,-5,-5,0
3658.18,0,57,22761,238,-546,-4002,50,-40,1,32162,28687,32763,-1,-4,0
3658.18,0,57,22777,246,-546,-3982,60,-36,1,32162,28689,32764,-5,-2,0
3658.21,0,57,22792,242,-541,-4000,45,-48,9,32162,28688,32762,-3,-5,0
3658.21,0,57,22807,241,-545,-3982,67,-24,8,32162,28690,32763,-6,-5,0
3658.24,0,57,22823,248,-547,-4010,15,-46,-1,32162,28686,32760,-2,-3,0
3658.24,0,57,22837,242,-542,-4007,19,-18,-11,32162,28688,32763,-3,-6,0
3658.27,0,57,22853,244,-544,-3977,44,-43,4,32162,28688,32759,-3,-4,0
3658.27,0,57,22867,245,-543,-3997,44,-77,8,32164,28688,32760,-2,-6,0
3658.3,0,57,22883,244,-539,-3985,32,-36,-2,32162,28687,32760,-2,-6,0
3658.3,0,57,22898,244,-541,-4004,52,-36,-9,32162,28688,32762,-1,-7,0
3658.33,0,57,22913,245,-544,-4004,32,-35,10,32161,28688,32759,-4,-1,0
3658.33,0,57,22928,246,-549,-3996,34,-23,19,32161,28688,32762,-1,-5,0
3658.36,0,57,22944,247,-542,-3990,60,-49,-4,32163,28688,32759,-1,-9,0
3658.36,0,57,22959,244,-539,-3989,40,-34,15,32163,28688,32761,-2,-4,0
3658.39,0,57,22974,237,-542,-4008,52,-56,1,32162,28687,32762,-4,-6,0
3658.39,0,57,22989,244,-548,-4001,47,-40,-5,32163,28690,32762,-1,-3,0
3658.42,0,57,23004,247,-550,-4005,22,-30,24,32161,28689,32761,-2,-1,0
3658.42,0,57,23020,244,-549,-3979,51,-48,7,32162,28688,32763,-1,-7,0
3658.45,0,57,23034,243,-540,-3994,42,-44,4,32161,28690,32763,-3,-5,0
3658.45,0,57,23050,240,-544,-4011,36,-40,15,32163,28689,32761,-5,-2,0
3658.48,0,57,23066,239,-550,-3989,52,-45,-11,32163,28688,32760,-3,-3,0
3658.49,0,57,23080,246,-553,-3998,29,-30,4,32162,28688,32761,-2,-2,0
3658.51,0,57,23095,245,-543,-3982,29,-53,-14,32161,28688,32761,-1,-5,0
3658.52,0,57,23111,234,-548,-3992,34,-48,-1,32163,28687,32761,-1,-3,0
3658.54,0,57,23126,246,-552,-4008,39,-15,3,32162,28688,32761,-3,-5,0
3658.55,0,57,23141,242,-549,-3996,28,-48,-21,32162,28686,32760,-5,-8,0
3658.58,0,57,23156,246,-538,-3994,21,-40,-7,32162,28688,32763,-7,-2,0
3658.58,0,57,23171,248,-543,-3988,34,-38,11,32162,28690,32760,-6,-3,0
3658.6,0,57,23187,245,-543,-4004,14,-60,-7,32162,28689,32760,-2,-6,0
3658.61,0,57,23201,243,-546,-3988,15,-31,6,32162,28688,32761,-1,-5,0
3658.63,0,57,23217,243,-550,-4005,56,-48,10,32163,28687,32763,-3,-3,0
3658.64,0,57,23232,242,-542,-3988,7,-37,8,32163,28690,32762,-5,-2,0
3658.66,0,57,23247,244,-547,-3990,41,-51,-3,32163,28690,32761,-3,-1,0
3658.67,0,57,23262,248,-548,-3989,29,-29,-6,32163,28689,32759,-4,-5,0
3658.69,0,57,23278,246,-542,-4002,25,-35,1,32161,28687,32759,-2,-6,0
3658.7,0,57,23293,243,-549,-4013,33,-50,-8,32162,28689,32763,-1,-3,0
3658.72,0,57,23308,242,-552,-3968,38,-26,-9,32162,28689,32761,-2,-5,0
3658.73,0,57,23323,241,-541,-3994,18,-38,-1,32163,28689,32762,-5,-4,0
3658.75,0,57,23338,248,-532,-3994,32,-54,9,32161,28689,32763,-3,-1,0
3658.76,0,57,23354,247,-542,-4020,49,-29,-3,32163,28690,32764,-3,-2,0
3658.78,0,57,23368,238,-565,-4012,37,-42,-2,32160,28689,32760,-1,-5,0
3658.79,0,57,23384,239,-549,-3956,21,-31,2,32163,28688,32761,-3,-4,0
3658.81,0,57,23399,250,-533,-3993,44,-35,0,32162,28690,32760,-3,-3,0
3658.82,0,57,23414,240,-540,-3999,45,-44,-3,32163,28688,32763,-7,-5,0
3658.84,0,57,23430,240,-548,-4015,32,-45,7,32162,28686,32761,-1,-8,0
3658.85,0,57,23445,248,-548,-4011,30,-29,-5,32162,28687,32761,-2,-5,0
3658.87,0,57,23460,248,-540,-3961,27,-29,-2,32162,28689,32761,-3,-10,0
3658.88,0,57,23475,240,-538,-3991,53,-65,-3,32162,28687,32762,-3,-3,0
3658.9,0,57,23490,232,-544,-4004,65,-26,6,32162,28688,32761,-3,-3,0
3658.91,0,57,23505,246,-545,-4010,38,-15,9,32161,28690,32764,-7,-6,0
3658.93,0,57,23521,251,-538,-3996,28,-42,4,32161,28690,32762,-1,-1,0
3658.94,0,57,23535,248,-545,-3977,60,-59,-10,32162,28689,32762,-7,-5,0
3658.96,0,57,23551,243,-546,-3998,44,-39,-4,32163,28688,32762,-4,-4,0
3658.97,0,57,23566,233,-548,-3999,29,-16,7,32163,28688,32759,-3,-9,0
3658.99,0,57,23581,242,-544,-3996,66,-48,6,32162,28688,32761,-5,-4,0
3659,0,57,23597,248,-548,-4005,34,-60,7,32163,28688,32761,-2,-1,0
3659.02,0,57,23612,248,-545,-4002,23,-49,1,32162,28690,32761,-6,-10,0
3659.03,0,57,23627,247,-540,-3984,43,-48,2,32161,28688,32761,-5,-4,0
3659.05,0,57,23642,239,-538,-3996,26,-60,-17,32162,28688,32760,-7,-5,0
3659.06,0,57,23657,246,-550,-4004,66,-30,13,32160,28689,32763,-2,-5,0
3659.08,0,57,23672,241,-549,-4001,31,-43,16,32162,28687,32760,15,-3,0
3659.09,0,57,23688,239,-538,-3992,48,-42,5,32163,28687,32762,-6,-2,0
3659.11,0,57,23702,244,-541,-3997,36,-44,8,32163,28691,32763,-2,-7,0
3659.14,0,57,23718,245,-544,-3994,38,-53,5,32162,28692,32764,-4,-7,0
3659.14,0,57,23733,246,-549,-3987,25,-37,1,32163,28689,32761,-4,-2,0
3659.17,0,57,23748,240,-540,-4009,37,-29,6,32163,28687,32761,0,-1,0
3659.17,0,57,23764,244,-550,-3980,42,-37,0,32163,28688,32761,-4,-2,0
3659.2,0,57,23779,246,-547,-4007,30,-50,-14,32163,28689,32760,-2,2,0
3659.2,0,57,23794,242,-546,-3990,27,-20,5,32163,28686,32762,-2,-5,0
3659.23,0,57,23809,244,-545,-3995,58,-37,10,32162,28690,32763,-3,-7,0
3659.23,0,57,23824,251,-547,-3997,34,-33,11,32163,28687,32762,-4,-6,0
3659.26,0,57,23839,241,-543,-3989,64,-27,6,32161,28688,32760,-5,-3,0
3659.26,0,57,23855,245,-545,-3999,55,-53,-6,32163,28689,32760,-3,-1,0
3659.29,0,57,23869,245,-540,-4000,39,-31,17,32161,28688,32761,-3,-7,0
3659.29,0,57,23885,244,-547,-4017,72,-23,-6,32161,28689,32761,-4,-1,0
3659.32,0,57,23900,249,-545,-3985,11,-25,7,32162,28685,32759,-2,-5,0
3659.32,0,57,23915,240,-538,-3990,10,-29,-2,32162,28688,32764,-1,-3,0
3659.35,0,57,23931,244,-543,-3995,45,-52,3,32161,28691,32762,-4,-6,0
3659.35,0,57,23946,245,-551,-4003,38,-43,7,32162,28686,32761,-2,-5,0
3659.38,0,57,23961,245,-545,-3998,29,-22,-10,32162,28686,32761,2,-1,0
3659.38,0,57,23976,250,-546,-4004,57,-39,0,32161,28687,32761,-3,-1,0
3659.41,0,57,23991,243,-542,-3983,41,-44,27,32162,28688,32759,-7,-10,0
3659.41,0,57,24006,244,-544,-3999,37,-54,6,32161,28689,32763,-1,-5,0
3659.44,0,57,24022,244,-537,-3994,60,-21,3,32162,28686,32759,-3,-5,0
3659.44,0,57,24036,248,-566,-3987,46,-46,-2,32162,28689,32763,-3,-5,0
3659.47,0,57,24052,263,-521,-4027,36,-47,4,32162,28690,32762,-1,-1,0
3659.47,0,57,24068,237,-560,-4009,65,-32,13,32164,28687,32762,-3,-5,0
3659.5,0,57,24082,253,-544,-3964,50,-42,3,32164,28688,32760,-2,-2,0
3659.5,0,57,24098,236,-526,-4017,18,-54,14,32163,28689,32764,-1,-1,0
3659.53,0,57,24113,240,-533,-3988,86,-26,1,32161,28689,32761,-1,-4,0
3659.53,0,57,24128,248,-565,-3992,39,-57,-5,32164,28688,32762,-1,-1,0
3659.56,0,57,24143,243,-535,-4020,-17,-29,9,32162,28688,32761,-6,-5,0
3659.57,0,57,24158,242,-539,-3959,58,-16,8,32163,28689,32761,-3,-5,0
3659.59,0,57,24173,250,-550,-3998,34,-68,-15,32162,28689,32763,-1,-6,0
3659.59,0,57,24189,228,-545,-4017,5,-43,10,32163,28688,32761,-3,-1,0
3659.62,0,57,24203,249,-542,-3981,56,-5,-2,32161,28688,32759,-2,-7,0
3659.62,0,57,24219,249,-546,-4012,36,-45,16,32161,28691,32762,-3,-8,0
3659.65,0,57,24234,239,-543,-3989,34,-59,12,32162,28687,32760,-5,-4,0
3659.65,0,57,24249,240,-540,-3997,77,-27,7,32163,28687,32759,-2,-1,0
3659.68,0,57,24265,244,-546,-4005,13,-31,-2,32163,28687,32761,-1,-7,0
3659.68,0,57,24280,245,-548,-3993,9,-42,-8,32162,28687,32760,-4,-6,0
3659.71,0,57,24295,252,-534,-3990,63,-39,-2,32162,28688,32760,-1,-6,0
3659.71,0,57,24310,238,-548,-4000,53,-14,12,32162,28689,32764,-2,-2,0
3659.74,0,57,24325,244,-552,-3994,28,-37,15,32163,28686,32761,-4,-3,0
3659.75,0,57,24340,248,-544,-3997,60,-36,13,32162,28688,32764,-3,-5,0
3659.77,0,57,24356,242,-545,-4001,59,-54,12,32162,28689,32763,-6,-6,0
3659.78,0,57,24370,240,-537,-3981,24,-21,-4,32162,28686,32763,-1,-4,0
3659.8,0,57,24386,249,-536,-4004,49,-45,11,32162,28689,32764,-5,0,0
3659.81,0,57,24402,248,-551,-3998,27,-28,-11,32160,28688,32762,-1,-3,0
3659.83,0,57,24416,245,-546,-3995,27,-49,4,32161,28689,32764,-1,-4,0
3659.84,0,57,24432,240,-541,-4009,36,-43,-6,32162,28687,32762,-1,-4,0
3659.86,0,57,24447,246,-545,-3980,21,-42,2,32163,28687,32761,-4,-9,0
3659.87,0,57,24462,246,-548,-4004,35,-41,-1,32162,28688,32759,-3,-1,0
3659.89,0,57,24477,238,-543,-3997,53,-31,3,32161,28686,32762,-6,-6,0
3659.9,0,57,24492,246,-548,-4000,17,-49,22,32161,28690,32761,-3,-1,0
3659.92,0,57,24507,240,-544,-3993,27,-19,-8,32161,28689,32764,-5,-1,0
3659.93,0,57,24523,246,-546,-3980,47,-55,-1,32163,28688,32763,-1,-4,0
3659.95,0,57,24537,240,-543,-4005,47,-39,-5,32161,28689,32763,-1,-6,0
3659.96,0,57,24553,240,-543,-3998,38,-39,8,32162,28689,32761,-2,-3,0
3659.98,0,57,24569,243,-544,-4001,37,-51,15,32162,28686,32761,-1,-4,0
3659.99,0,57,24583,242,-539,-3987,45,-48,14,32160,28687,32761,-2,-5,0
3660.01,0,57,24599,243,-547,-3998,32,-63,-2,32164,28688,32760,-4,-7,0
3660.02,0,57,24614,242,-544,-3991,20,-52,9,32163,28692,32762,-4,-7,0
3660.04,0,57,24629,245,-546,-3992,38,-54,-4,32162,28687,32760,-4,-4,0
3660.05,0,57,24644,244,-546,-4011,47,-31,-10,32161,28689,32759,-1,-3,0
3660.07,0,57,24659,250,-546,-3986,39,-35,-3,32161,28686,32759,-5,-3,0
3660.08,0,57,24674,245,-544,-3992,28,-42,8,32160,28689,32761,-5,-1,0
3660.1,0,57,24690,248,-548,-3987,58,-50,-1,32163,28688,32761,-5,-7,0
3660.11,0,57,24704,242,-549,-4001,48,-36,4,32163,28690,32762,-2,-1,0
3660.13,0,57,24720,249,-540,-3993,20,-51,8,32161,28689,32763,-3,-6,0
3660.14,0,57,24736,246,-544,-3992,37,-35,3,32161,28687,32764,4,-3,0
3660.16,0,57,24750,247,-541,-3988,29,-45,4,32162,28687,32761,-7,-4,0
3660.17,0,57,24766,241,-544,-3993,30,-50,-7,32162,28689,32762,-7,-3,0
3660.19,0,57,24781,246,-545,-3999,52,-10,4,32163,28688,32761,-4,-2,0
3660.2,0,57,24796,246,-549,-3996,56,-57,2,32163,28686,32761,-1,-3,0
3660.22,0,57,24811,245,-543,-4002,12,-42,1,32162,28686,32760,-2,-1,0
3660.23,0,57,24826,244,-541,-3984,58,-67,-4,32161,28687,32760,1,2,0
3660.25,0,57,24841,244,-539,-3993,25,-33,-3,32162,28690,32758,-1,-6,0
3660.26,0,57,24857,248,-543,-3995,38,-36,-18,32161,28686,32763,-3,0,0
3660.28,0,57,24872,244,-546,-3999,38,-28,0,32162,28690,32761,-1,-5,0
3660.29,0,57,24887,238,-544,-3990,22,-36,-5,32162,28688,32763,-1,-7,0
3660.31,0,57,24903,245,-540,-3994,33,-33,0,32162,28688,32761,-1,-1,0
3660.32,0,57,24917,241,-541,-3996,44,-41,0,32162,28688,32764,-6,1,0
3660.34,0,57,24933,242,-542,-3992,29,-49,9,32163,28687,32761,-1,-5,0
3660.37,0,57,24948,239,-546,-4014,22,-29,0,32163,28688,32762,-1,-3,0
3660.37,0,57,24963,250,-542,-3982,35,-17,13,32163,28686,32762,-2,-2,0
3660.4,0,57,24979,240,-546,-4002,57,-58,-1,32162,28689,32761,-4,-5,0
3660.4,0,57,24993,244,-550,-3990,47,-31,7,32163,28688,32760,-4,-9,0
3660.43,0,57,25008,238,-549,-4002,23,-25,3,32163,28689,32764,-6,-3,0
3660.43,0,57,25024,245,-541,-4004,38,-27,-3,32163,28687,32761,-2,-2,0
3660.46,0,57,25039,240,-544,-3987,42,-31,-5,32162,28688,32762,-4,-5,0
3660.46,0,57,25054,246,-544,-3997,39,-59,-1,32162,28689,32761,-3,-3,0
3660.49,0,57,25070,244,-540,-4001,11,-29,0,32162,28689,32763,-4,-5,0
3660.49,0,57,25084,248,-543,-3991,55,-32,-8,32163,28687,32759,-1,-5,0
3660.52,0,57,25100,248,-540,-3988,36,-44,-13,32160,28687,32762,-6,-4,0
3660.52,0,57,25114,241,-542,-4013,41,-22,5,32162,28687,32763,-3,-4,0
3660.55,0,57,25130,246,-547,-3985,44,-48,0,32161,28689,32762,-3,-5,0
3660.55,0,57,25145,242,-538,-3998,33,-48,4,32162,28689,32763,-1,-9,0
3660.58,0,57,25160,241,-543,-4000,42,-50,-6,32160,28687,32760,-2,-4,0
3660.58,0,57,25175,244,-548,-3989,41,-25,13,32162,28689,32762,-1,-5,0
3660.61,0,57,25191,245,-538,-4005,6,-30,-1,32162,28687,32762,-3,-7,0
3660.61,0,57,25206,243,-546,-3979,47,-41,21,32162,28690,32764,-4,-5,0
3660.64,0,57,25221,245,-550,-3987,32,-52,4,32163,28688,32762,-3,-2,0
3660.64,0,57,25237,239,-539,-4005,21,-42,4,32160,28692,32765,-2,-3,0
3660.67,0,57,25251,242,-554,-3981,77,-34,8,32162,28686,32761,-5,-7,0
3660.67,0,57,25267,251,-536,-4004,19,-44,2,32162,28688,32760,-2,-3,0
3660.7,0,57,25281,236,-544,-4030,44,-50,20,32163,28686,32759,1,-6,0
3660.7,0,57,25297,246,-542,-3976,66,-27,-3,32162,28689,32759,-3,-5,0
3660.73,0,57,25312,246,-548,-4008,28,-41,14,32162,28689,32760,-1,-4,0
3660.73,0,57,25327,235,-537,-3992,47,-35,-11,32162,28687,32763,-4,-3,0
3660.76,0,57,25342,246,-549,-3976,56,-27,21,32162,28687,32761,-1,-7,0
3660.76,0,57,25358,247,-546,-4004,39,-42,4,32163,28687,32762,-2,-5,0
3660.79,0,57,25373,247,-545,-3994,44,-32,-1,32161,28689,32760,-3,-3,0
3660.79,0,57,25388,240,-545,-3982,54,-45,10,32162,28687,32761,-3,-4,0
3660.82,0,57,25404,242,-546,-3984,14,-49,18,32161,28689,32759,-2,-2,0
3660.82,0,57,25418,240,-541,-4031,58,-32,-1,32163,28688,32761,-2,-8,0
3660.85,0,57,25434,249,-539,-3993,78,-42,10,32162,28690,32764,-5,-3,0
3660.85,0,57,25448,243,-542,-4013,54,-68,6,32162,28689,32760,-1,-6,0
3660.88,0,57,25464,241,-539,-3996,41,-46,0,32162,28686,32763,-5,-1,0
3660.88,0,57,25479,247,-546,-3971,69,-46,11,32163,28688,32762,-3,-4,0
3660.91,0,57,25494,240,-545,-4017,32,-53,4,32161,28688,32762,-7,-1,0
3660.92,0,57,25510,243,-540,-3984,33,-33,-5,32162,28692,32765,-5,-3,0
3660.94,0,57,25525,252,-552,-4017,69,-25,18,32163,28686,32761,-2,-1,0
3660.94,0,57,25540,242,-550,-3993,0,-28,1,32160,28689,32764,-2,-3,0
3660.97,0,57,25555,245,-536,-3970,47,-52,-6,32162,28690,32763,-1,-5,0
3660.98,0,57,25571,246,-544,-4014,63,-43,16,32161,28688,32761,-3,-6,0
3661,0,57,25585,243,-546,-3998,41,-26,4,32161,28688,32763,-3,-5,0
3661.01,0,57,25601,247,-545,-4001,35,-30,4,32161,28688,32764,-3,-7,0
3661.03,0,57,25615,247,-544,-3979,29,-46,-6,32160,28687,32761,-4,-2,0
3661.04,0,57,25631,243,-542,-3984,42,-45,8,32162,28691,32763,-3,-9,0
3661.06,0,57,25646,240,-548,-3999,61,-43,9,32163,28685,32761,-4,-5,0
3661.07,0,57,25661,240,-541,-4000,41,-28,-7,32162,28688,32760,-2,-4,0
3661.09,0,57,25677,251,-547,-4001,42,-42,-3,32162,28688,32762,-1,-5,0
3661.1,0,57,25692,240,-550,-3983,35,-36,6,32162,28688,32762,-3,-4,0
3661.12,0,57,25707,242,-545,-3993,17,-53,-11,32161,28688,32763,-2,-7,0
3661.13,0,57,25722,242,-548,-3986,29,-25,1,32161,28689,32761,-1,-3,0
3661.15,0,57,25738,244,-546,-3996,40,-29,5,32162,28690,32763,-4,-3,0
3661.16,0,57,25752,249,-547,-4005,29,-48,-1,32163,28689,32761,-1,-5,0
3661.18,0,57,25768,240,-551,-3988,22,-29,6,32162,28686,32761,-3,-2,0
3661.19,0,57,25782,242,-538,-3988,36,-43,-1,32162,28686,32759,-2,-6,0
3661.22,0,57,25798,244,-538,-3995,63,-73,-5,32162,28685,32761,-3,-4,0
3661.22,0,57,25813,231,-566,-3984,67,-42,-7,32163,28688,32762,-1,-4,0
3661.24,0,57,25828,242,-515,-4028,33,-38,-8,32164,28688,32761,-1,-7,0
3661.25,0,57,25844,228,-552,-4027,50,-40,8,32163,28686,32762,-1,-2,0
3661.27,0,57,25859,259,-534,-3926,33,0,17,32162,28689,32761,-1,-5,0
3661.28,0,57,25874,253,-538,-4080,9,-78,9,32161,28689,32760,-3,-5,0
3661.3,0,57,25889,220,-564,-3960,74,-11,3,32161,28687,32761,-3,-9,0
3661.31,0,57,25905,263,-551,-3966,47,-69,14,32164,28689,32761,-5,-4,0
3661.33,0,57,25919,232,-547,-4075,-11,-51,-8,32160,28691,32764,-1,-5,0
3661.34,0,57,25935,247,-534,-3904,51,1,8,32163,28687,32761,-3,-3,0
3661.36,0,57,25949,258,-554,-4035,52,-96,15,32164,28690,32762,-4,-9,0
3661.37,0,57,25965,230,-537,-3997,43,-47,-1,32162,28687,32760,-2,-5,0
3661.39,0,57,25980,248,-551,-3988,56,-7,-5,32164,28688,32760,-3,-8,0
3661.4,0,57,25995,248,-545,-4008,11,-66,-4,32162,28687,32762,-4,-2,0
3661.42,0,57,26011,232,-539,-3961,37,-21,-4,32163,28690,32764,-4,-2,0
3661.43,0,57,26026,258,-538,-4031,73,-37,8,32164,28687,32763,-2,-4,0
3661.45,0,57,26041,247,-553,-3981,35,-40,2,32163,28687,32763,-5,-1,0
3661.46,0,57,26056,244,-537,-4019,32,-35,25,32160,28688,32763,-2,-3,0
3661.48,0,57,26072,251,-544,-3975,58,-47,-5,32161,28689,32764,-4,-5,0
3661.49,0,57,26086,236,-544,-3986,36,-20,12,32162,28689,32762,-3,-5,0
3661.51,0,57,26102,245,-536,-4023,30,-28,-8,32161,28688,32762,-5,-1,0
3661.52,0,57,26116,247,-545,-3962,50,-21,3,32161,28690,32765,-4,-3,0
3661.54,0,57,26132,242,-545,-4026,34,-19,2,32163,28687,32762,-3,-1,0
3661.55,0,57,26147,239,-543,-3971,49,-47,3,32162,28687,32762,-5,10,0
3661.57,0,57,26162,240,-544,-3999,36,-33,2,32163,28688,32761,-1,-1,0
3661.58,0,57,26178,246,-549,-4010,41,-10,-1,32162,28687,32763,-4,-5,0
3661.6,0,57,26193,243,-544,-3984,24,-27,7,32160,28689,32760,-2,-6,0
3661.63,0,57,26208,243,-544,-3998,52,-45,7,32163,28688,32765,-6,2,0
3661.63,0,57,26223,246,-548,-3999,51,-34,18,32163,28687,32760,-5,-5,0
3661.66,0,57,26239,242,-543,-3985,25,-39,5,32162,28689,32764,-3,4,0
3661.66,0,57,26253,240,-539,-3998,55,-44,5,32160,28686,32762,-1,-5,0
3661.69,0,57,26269,240,-548,-4000,40,-41,-1,32163,28690,32761,-1,-1,0
3661.69,0,57,26283,244,-544,-3985,13,-18,0,32161,28687,32759,-2,-4,0
3661.72,0,57,26299,246,-540,-4009,24,-51,16,32161,28686,32760,-2,-3,0
3661.72,0,57,26315,240,-546,-3986,49,-31,-7,32163,28688,32762,-3,-1,0
3661.75,0,57,26329,244,-540,-4005,34,-58,-8,32163,28685,32759,-4,-2,0
3661.75,0,57,26345,237,-544,-4002,25,-29,-2,32163,28687,32761,-4,-5,0
3661.79,0,57,26360,253,-550,-3977,52,-37,9,32162,28686,32759,-3,-5,0
3661.81,0,57,26375,244,-546,-4020,35,-31,-8,32163,28689,32763,-1,-5,0
3661.81,0,57,26390,243,-543,-3981,35,-23,13,32163,28687,32761,-6,-4,0
3661.81,0,57,26406,248,-551,-3992,54,-64,1,32162,28690,32763,-5,-5,0
3661.84,0,57,26420,242,-544,-4008,21,-34,0,32160,28687,32759,1,0,0
3661.84,0,57,26436,244,-545,-3985,46,-42,-4,32163,28690,32761,-1,-1,0
3661.87,0,57,26450,244,-545,-4013,45,-47,1,32163,28686,32759,-7,-7,0
3661.87,0,57,26466,237,-544,-3987,26,-46,-5,32162,28687,32763,-5,-4,0
3661.9,0,57,26482,244,-548,-3998,30,-35,0,32163,28686,32759,-3,-9,0
3661.9,0,57,26496,243,-544,-4001,32,-28,4,32163,28690,32759,-4,-2,0
3661.93,0,57,26512,240,-542,-3993,46,-32,12,32162,28690,32762,-5,-2,0
3661.93,0,57,26527,247,-543,-4010,48,-42,15,32163,28685,32761,-2,-3,0
3661.96,0,57,26542,247,-551,-3993,19,-39,-7,32162,28689,32762,-5,-5,0
3661.96,0,57,26557,244,-542,-3996,37,-39,0,32162,28687,32764,-2,-6,0
3661.99,0,57,26573,246,-544,-3993,46,-35,3,32160,28686,32760,-5,-5,0
3661.99,0,57,26587,244,-544,-3997,30,-44,1,32161,28689,32762,-2,-3,0
3662.02,0,57,26603,246,-545,-4004,13,-42,-8,32162,28688,32762,-5,-5,0
3662.02,0,57,26617,246,-551,-3991,37,-32,10,32163,28688,32763,-6,-10,0
3662.05,0,57,26633,245,-543,-4002,16,-15,-10,32161,28687,32761,-2,-4,0
3662.05,0,57,26649,245,-544,-3985,44,-55,-12,32162,28688,32761,-5,-6,0
3662.08,0,57,26663,244,-545,-4008,30,-24,-9,32163,28687,32761,-2,-5,0
3662.11,0,57,26679,249,-550,-3990,49,-44,10,32163,28685,32761,-2,-6,0
3662.11,0,57,26694,248,-548,-4002,25,-30,8,32163,28689,32759,-4,-4,0
3662.11,0,57,26709,246,-546,-3984,63,-51,-2,32162,28690,32763,-6,1,0
3662.14,0,57,26724,244,-539,-3995,11,-26,-8,32163,28685,32758,-3,-5,0
3662.15,0,57,26739,248,-540,-4010,62,-25,9,32162,28689,32765,-2,1,0
3662.17,0,57,26754,245,-549,-3982,50,-45,9,32162,28689,32764,-3,-6,0
3662.17,0,57,26770,250,-536,-4012,28,-43,13,32162,28688,32763,-1,-3,0
3662.2,0,57,26785,236,-550,-3991,56,-15,-5,32162,28687,32760,-5,-6,0
3662.2,0,57,26800,249,-537,-3982,39,-29,2,32161,28687,32762,-3,-1,0
3662.23,0,57,26816,237,-540,-4024,24,-37,2,32162,28688,32764,-5,-1,0
3662.26,0,57,26830,236,-547,-3984,62,-39,0,32163,28690,32763,-3,-3,0
3662.26,0,57,26846,245,-541,-4001,31,-47,21,32164,28687,32760,-1,-6,0
3662.27,0,57,26861,240,-537,-4004,34,-41,4,32163,28688,32762,-3,-5,0
3662.29,0,57,26876,249,-547,-3968,45,-22,3,32163,28686,32761,-3,-8,0
3662.3,0,57,26891,243,-551,-4022,43,-36,19,32163,28688,32761,-5,-1,0
3662.32,0,57,26906,238,-538,-3979,43,-47,5,32161,28689,32762,-5,-5,0
3662.33,0,57,26921,248,-543,-4000,71,-52,1,32162,28685,32762,-5,-3,0
3662.35,0,57,26937,231,-543,-3997,50,-36,-22,32161,28687,32765,-1,-5,0
3662.36,0,57,26952,248,-535,-3984,20,-35,-3,32161,28686,32763,-5,-4,0
3662.38,0,57,26967,242,-544,-4012,46,-9,-22,32160,28688,32761,-3,-3,0
3662.39,0,57,26983,240,-544,-3984,52,-59,-7,32163,28688,32760,-3,-3,0
3662.41,0,57,26997,251,-544,-4017,39,-53,-5,32161,28687,32764,3,-2,0
3662.42,0,57,27013,238,-548,-4005,49,-41,-1,32163,28690,32767,-3,1,0
3662.44,0,57,27028,245,-545,-3976,13,-27,6,32162,28686,32762,-3,-9,0
3662.45,0,57,27043,240,-545,-4015,45,-61,-2,32162,28685,32758,-1,-4,0
3662.47,0,57,27058,235,-544,-3975,41,-27,9,32163,28687,32761,-1,0,0
3662.48,0,57,27073,250,-547,-3993,32,-41,11,32162,28689,32764,-2,-4,0
3662.5,0,57,27088,238,-547,-4009,23,-34,11,32162,28690,32761,-2,-5,0
3662.51,0,57,27104,255,-541,-3983,50,-31,15,32162,28688,32762,-1,-5,0
3662.53,0,57,27119,253,-547,-4013,6,-59,0,32162,28687,32762,-2,-2,0
3662.54,0,57,27134,238,-546,-3992,47,-12,8,32161,28688,32765,-3,-3,0
3662.56,0,57,27150,246,-548,-3987,45,-31,7,32162,28687,32764,-5,-6,0
3662.57,0,57,27164,239,-541,-4004,62,-27,4,32161,28688,32763,-4,-5,0
3662.59,0,57,27180,247,-542,-3992,11,-29,4,32162,28687,32762,-5,-2,0
3662.6,0,57,27195,244,-545,-3998,33,-30,7,32162,28688,32762,-4,-5,0
3662.62,0,57,27210,242,-545,-4000,34,-43,-9,32162,28688,32760,-4,-2,0
3662.63,0,57,27225,241,-545,-3991,33,-42,-1,32162,28688,32760,-3,-4,0
3662.65,0,57,27240,247,-542,-4000,49,-38,-10,32161,28688,32761,-7,-7,0
3662.66,0,57,27255,241,-544,-3994,24,-24,-1,32161,28688,32766,-6,-2,0
3662.68,0,57,27271,244,-538,-3998,33,-34,7,32161,28687,32762,-3,-4,0
3662.69,0,57,27286,241,-539,-3999,50,-38,14,32159,28688,32764,-5,-5,0
3662.71,0,57,27301,247,-547,-4000,25,-45,10,32162,28689,32761,-5,-4,0
3662.72,0,57,27317,247,-545,-3999,38,-32,9,32161,28687,32762,-5,0,0
3662.74,0,57,27331,237,-537,-3989,34,-43,4,32161,28688,32759,-1,-4,0
3662.75,0,57,27347,248,-541,-3996,49,-50,2,32162,28687,32760,-1,-1,0
3662.77,0,57,27362,245,-543,-3990,48,-44,8,32162,28686,32763,-4,-5,0
3662.78,0,57,27377,242,-544,-3995,18,-58,-4,32163,28686,32763,-1,-6,0
3662.8,0,57,27392,243,-546,-3992,33,-40,-17,32161,28688,32763,12,-6,0
3662.81,0,57,27407,250,-543,-3987,52,-28,-8,32163,28687,32763,-2,-2,0
3662.83,0,57,27423,241,-542,-4002,48,-25,19,32163,28688,32762,-5,-3,0
3662.86,0,57,27438,235,-553,-3997,58,-33,-2,32162,28687,32761,-1,-3,0
3662.86,0,57,27453,246,-547,-4001,38,-41,7,32162,28687,32762,-3,-7,0
3662.89,0,57,27468,240,-543,-3997,42,-55,-12,32160,28689,32761,-2,-1,0
3662.89,0,57,27484,247,-540,-3987,65,-47,15,32161,28688,32760,-3,-4,0
3662.92,0,57,27498,243,-548,-3994,26,-37,0,32162,28687,32763,-6,-3,0
3662.92,0,57,27514,245,-543,-3996,53,-36,9,32163,28686,32761,-3,-2,0
3662.95,0,57,27529,246,-543,-4002,36,-29,18,32162,28686,32760,-1,-5,0
3662.95,0,57,27544,244,-543,-4003,36,-34,3,32161,28686,32762,-1,-3,0
3662.98,0,57,27559,246,-539,-4001,24,-34,-1,32161,28687,32761,-2,-4,0
3662.98,0,57,27574,251,-542,-3988,34,-56,0,32162,28688,32760,-5,-7,0
3663.02,0,57,27590,243,-546,-4006,59,-41,9,32161,28687,32760,-2,-2,0
3663.02,0,57,27605,245,-542,-3985,28,-49,4,32163,28688,32763,-2,-5,0
3663.04,0,57,27620,246,-546,-4004,58,-32,5,32161,28688,32763,-4,-4,0
3663.04,0,57,27635,244,-552,-3991,47,-45,5,32162,28689,32763,-6,-5,0
3663.07,0,57,27651,249,-545,-3986,32,-26,6,32161,28688,32760,-5,-6,0
3663.08,0,57,27665,246,-539,-4006,52,-39,-20,32162,28685,32759,-4,-7,0
3663.1,0,57,27681,244,-542,-3986,41,-27,17,32161,28687,32761,-1,-6,0
3663.1,0,57,27696,246,-551,-3996,50,-35,-5,32162,28687,32763,-4,-1,0
3663.13,0,57,27711,240,-542,-4000,46,-38,6,32161,28690,32761,-5,-9,0
3663.13,0,57,27726,246,-541,-3982,28,-35,15,32162,28685,32762,-2,-6,0
3663.16,0,57,27741,245,-541,-4007,37,-35,-7,32163,28686,32759,-3,-4,0
3663.16,0,57,27757,245,-545,-4001,34,-43,-13,32163,28688,32763,-1,-2,0
3663.19,0,57,27772,245,-554,-3989,32,-29,18,32162,28688,32760,-3,-5,0
3663.19,0,57,27787,245,-542,-4001,38,-34,-1,32161,28688,32762,-1,-3,0
3663.22,0,57,27802,242,-538,-3988,54,-43,1,32162,28688,32762,-3,-1,0
3663.22,0,57,27818,244,-547,-3996,54,-54,2,32163,28688,32762,-4,-2,0
3663.25,0,57,27832,242,-544,-3997,41,-35,-9,32162,28689,32761,-4,-1,0
3663.25,0,57,27848,246,-544,-4011,54,-32,3,32162,28688,32760,-1,-2,0
3663.28,0,57,27863,250,-543,-3977,46,-38,-5,32161,28687,32760,-9,-1,0
3663.28,0,57,27878,246,-544,-4009,50,-57,15,32163,28689,32761,-1,-5,0
3663.31,0,57,27893,248,-544,-3998,45,-19,1,32162,28687,32761,-3,-2,0
3663.31,0,57,27908,251,-549,-4000,40,-34,-2,32162,28692,32763,-1,-1,0
3663.34,0,57,27924,244,-542,-3999,26,-45,13,32162,28688,32760,-3,-5,0
3663.34,0,57,27939,247,-542,-3983,44,-66,-6,32161,28689,32763,-1,-6,0
3663.37,0,57,27954,250,-543,-4000,7,-31,17,32162,28690,32763,-2,-2,0
3663.37,0,57,27969,244,-548,-4004,39,-26,4,32162,28689,32760,-2,-5,0
3663.4,0,57,27985,242,-536,-3984,39,-44,6,32162,28687,32760,-3,-5,0
3663.4,0,57,27999,243,-540,-4006,41,-47,-15,32161,28688,32762,-2,-6,0
3663.43,0,57,28015,244,-544,-3996,28,-38,-10,32162,28690,32762,-3,-6,0
3663.43,0,57,28030,242,-548,-3995,48,-56,5,32162,28690,32764,-4,-4,0
3663.46,0,57,28045,244,-547,-4000,39,-36,5,32162,28686,32761,-4,-5,0
3663.47,0,57,28061,245,-544,-3991,40,-45,8,32160,28688,32763,-4,-7,0
3663.49,0,57,28075,238,-544,-4008,11,-59,13,32161,28688,32762,-4,-4,0
3663.5,0,57,28091,240,-545,-3986,34,-31,3,32161,28689,32761,-1,-3,0
3663.52,0,57,28106,250,-546,-3991,40,-58,-11,32161,28689,32762,-4,-4,0
3663.53,0,57,28121,242,-539,-4006,22,-39,8,32161,28688,32763,-5,-8,0
3663.55,0,57,28136,243,-549,-3989,40,-35,9,32161,28691,32763,-1,-4,0
3663.56,0,57,28152,245,-544,-4014,24,-19,16,32162,28688,32761,-2,-2,0
3663.58,0,57,28166,249,-544,-3992,48,-38,-9,32162,28686,32763,-5,-5,0
3663.59,0,57,28182,250,-545,-3994,40,-53,2,32163,28688,32764,-1,-1,0
3663.61,0,57,28197,245,-546,-4002,53,-37,1,32160,28688,32761,-5,-2,0
3663.62,0,57,28212,243,-543,-3996,51,-45,2,32162,28690,32761,-5,-3,0
3663.64,0,57,28227,242,-548,-3997,33,-33,1,32161,28687,32762,-4,-3,0
3663.65,0,57,28242,249,-544,-3996,55,-38,-8,32162,28688,32759,-1,-1,0
3663.67,0,57,28258,248,-542,-3998,46,-50,7,32162,28688,32763,-1,-2,0
3663.68,0,57,28273,243,-540,-3995,20,-19,-1,32161,28688,32762,-5,-9,0
3663.7,0,57,28288,241,-545,-3992,57,-39,-11,32164,28687,32760,-3,-2,0
3663.71,0,57,28303,245,-545,-3992,10,-33,-6,32163,28688,32763,-4,-2,0
3663.73,0,57,28319,240,-544,-4007,57,-45,7,32160,28688,32760,-2,-2,0
3663.74,0,57,28333,241,-547,-4000,63,-59,0,32160,28691,32764,-4,-3,0
3663.76,0,57,28349,245,-544,-3974,0,-17,12,32162,28688,32761,-3,-3,0
3663.77,0,57,28364,244,-548,-4014,51,-48,-4,32162,28687,32762,-3,-2,0
3663.79,0,57,28379,243,-550,-3989,38,-52,17,32161,28686,32760,-2,-1,0
3663.8,0,57,28395,244,-548,-4005,23,-48,6,32161,28688,32761,-3,-2,0
3663.82,0,57,28409,243,-541,-4010,72,-40,3,32163,28691,32763,-1,-1,0
3663.85,0,57,28425,246,-548,-3978,47,-49,-5,32162,28687,32760,-4,-3,0
3663.85,0,57,28440,249,-546,-4018,38,-56,-9,32163,28687,32759,-4,-1,0
3663.86,0,57,28455,244,-544,-3981,40,2,17,32161,28689,32761,-3,-3,0
3663.88,0,57,28470,246,-546,-3999,48,-48,-13,32161,28689,32762,-2,-3,0
3663.89,0,57,28486,248,-548,-3999,43,-31,-5,32161,28686,32759,-4,-5,0
3663.91,0,57,28500,242,-545,-3990,63,-35,-1,32162,28688,32761,-6,1,0
3663.92,0,57,28516,247,-542,-4011,47,-39,-11,32161,28689,32764,-1,-2,0
3663.94,0,57,28531,248,-545,-3984,60,-48,5,32162,28689,32762,-1,-9,0
3663.95,0,57,28546,243,-542,-4002,40,-46,6,32162,28688,32762,-1,-2,0
3663.97,0,57,28562,240,-549,-3990,32,-52,9,32161,28687,32759,-4,2,0
3663.98,0,57,28576,242,-546,-4004,34,-32,22,32162,28686,32764,-1,15,0
3664,0,57,28592,248,-544,-3986,34,-38,3,32161,28687,32762,-6,-5,0
3664.01,0,57,28607,241,-537,-4003,49,-52,10,32161,28687,32761,-2,-1,0
3664.03,0,57,28622,242,-546,-3997,26,-22,1,32161,28689,32763,-4,-4,0
3664.04,0,57,28637,244,-548,-3988,37,-31,-2,32161,28689,32765,3,-2,0
3664.07,0,57,28653,249,-535,-4011,52,-16,4,32162,28690,32762,-3,-4,0
3664.07,0,57,28667,245,-546,-3983,68,-56,-5,32163,28688,32764,-5,-6,0
3664.09,0,57,28683,248,-541,-3998,31,-52,2,32163,28688,32761,-2,-1,0
3664.12,0,57,28698,244,-540,-3994,20,-31,0,32162,28690,32764,-2,-1,0
3664.12,0,57,28713,241,-543,-3991,60,-52,-3,32163,28686,32763,-4,-5,0
3664.15,0,57,28729,248,-541,-3995,50,-54,-12,32163,28687,32762,-3,-5,0
3664.15,0,57,28743,241,-544,-3991,32,-49,2,32161,28688,32760,-3,-4,0
3664.18,0,57,28759,244,-546,-4000,31,-56,-2,32162,28688,32762,-1,-5,0
3664.18,0,57,28774,243,-550,-3999,38,-51,4,32162,28690,32761,0,-1,0
3664.21,0,57,28789,242,-540,-4000,56,-55,-9,32161,28689,32761,-4,-3,0
3664.21,0,57,28804,239,-541,-3988,50,-29,-3,32163,28687,32762,-6,-5,0
3664.24,0,57,28820,244,-544,-3998,44,-60,-11,32162,28687,32762,-2,-1,0
3664.24,0,57,28834,247,-546,-4005,48,-50,12,32162,28687,32762,-5,-4,0
3664.27,0,57,28850,250,-545,-4004,68,-29,3,32161,28685,32760,-1,-5,0
3664.27,0,57,28865,249,-549,-3983,33,-61,-6,32162,28688,32760,-2,-3,0
3664.3,0,57,28880,242,-543,-3988,13,-56,13,32164,28686,32760,-3,-9,0
3664.3,0,57,28896,246,-540,-4001,53,-40,3,32161,28688,32762,-5,-1,0
3664.33,0,57,28910,245,-551,-3996,57,-62,-9,32162,28687,32761,-3,-9,0
3664.33,0,57,28926,246,-541,-4012,51,-25,-5,32162,28686,32761,-2,-11,0
3664.36,0,57,28941,244,-544,-3993,37,-59,1,32162,28689,32761,-3,-1,0
3664.36,0,57,28956,245,-546,-3991,24,-48,9,32161,28689,32761,-2,-1,0
3664.39,0,57,28971,238,-542,-3988,40,-37,1,32163,28688,32761,-5,-3,0
3664.39,0,57,28987,242,-542,-4005,53,-36,0,32163,28685,32763,-2,-3,0
3664.42,0,57,29001,243,-551,-4005,25,-34,7,32163,28685,32761,-3,-4,0
3664.42,0,57,29017,240,-545,-3988,51,-33,11,32161,28687,32761,-2,-7,0
3664.45,0,57,29032,244,-540,-3994,27,-54,4,32162,28686,32760,-2,-5,0
3664.45,0,57,29047,234,-543,-3993,58,-50,-7,32163,28687,32761,-3,-6,0
3664.48,0,57,29063,239,-543,-4001,47,-46,-11,32163,28687,32761,-4,-1,0
3664.48,0,57,29077,244,-546,-4007,40,-48,-4,32162,28688,32762,-2,-3,0
3664.51,0,57,29093,248,-545,-3990,25,-48,9,32162,28688,32761,-3,-6,0
3664.51,0,57,29108,242,-549,-3990,33,-45,-8,32161,28688,32763,-6,-1,0
3664.54,0,57,29123,244,-550,-3995,41,-33,9,32160,28687,32760,-3,-3,0
3664.54,0,57,29138,245,-547,-4011,48,-46,0,32162,28689,32762,-5,-1,0
3664.57,0,57,29154,242,-538,-3993,44,-16,1,32163,28688,32759,-3,-6,0
3664.57,0,57,29169,248,-546,-3996,49,-49,27,32163,28689,32762,-5,-1,0
3664.6,0,57,29184,248,-546,-4002,30,-45,-1,32162,28686,32760,-5,-9,0
3664.6,0,57,29199,247,-539,-3986,59,-50,10,32162,28686,32761,-3,-7,0
3664.63,0,57,29214,244,-549,-4016,38,-38,14,32162,28689,32759,-3,-2,0
3664.63,0,57,29230,242,-542,-3991,34,-32,2,32161,28689,32759,-4,-4,0
3664.66,0,57,29244,246,-548,-4004,46,-34,10,32163,28688,32762,-3,-10,0
3664.66,0,57,29260,245,-538,-3984,39,-21,6,32161,28687,32761,-2,-4,0
3664.69,0,57,29276,248,-544,-4002,36,-49,-15,32162,28688,32762,-2,-1,0
3664.69,0,57,29290,243,-543,-4002,27,-37,10,32163,28688,32764,-2,-2,0
3664.72,0,57,29305,240,-547,-3980,37,-40,0,32162,28690,32764,-1,-2,0
3664.73,0,57,29321,243,-547,-4017,40,-42,-2,32161,28688,32762,-2,-6,0
3664.75,0,57,29336,235,-542,-3970,28,-27,10,32162,28691,32762,-2,-5,0
3664.76,0,57,29351,237,-542,-4008,51,-55,6,32162,28690,32764,-4,-6,0
3664.78,0,57,29366,247,-545,-4003,32,-35,4,32162,28688,32760,-2,-2,0
3664.79,0,57,29381,250,-546,-3997,42,-22,5,32163,28687,32763,-2,-6,0
3664.81,0,57,29397,241,-542,-4007,56,-47,1,32163,28687,32760,-3,-5,0
3664.82,0,57,29411,239,-545,-3980,31,-9,-2,32162,28690,32765,-1,-5,0
3664.84,0,57,29427,243,-540,-4012,38,-47,-1,32162,28686,32762,-1,-7,0
3664.85,0,57,29442,246,-549,-3989,25,-25,14,32162,28687,32762,-1,-5,0
3664.87,0,57,29457,249,-547,-3994,57,-21,3,32160,28690,32761,-3,-5,0
3664.88,0,57,29472,245,-540,-4007,37,-23,10,32162,28689,32763,-1,-3,0
3664.9,0,57,29488,239,-545,-3989,30,-33,-4,32161,28689,32761,-3,-3,0
3664.91,0,57,29503,241,-550,-3987,46,-59,15,32162,28687,32761,-3,-4,0
3664.93,0,57,29518,244,-546,-3999,25,-34,5,32163,28688,32763,-5,-5,0
3664.94,0,57,29533,243,-545,-3995,57,-48,-2,32162,28690,32765,-4,-2,0
3664.96,0,57,29548,242,-541,-3991,48,-54,6,32161,28686,32761,-1,-6,0
3664.97,0,57,29564,240,-545,-3997,47,-35,5,32162,28687,32760,3,-8,0
3664.99,0,57,29578,250,-548,-3990,24,-29,0,32162,28688,32760,-2,-5,0
3665,0,57,29594,240,-549,-3996,46,-12,-10,32162,28688,32762,-1,0,0
3665.02,0,57,29609,245,-535,-3994,36,-57,9,32160,28690,32762,-4,-7,0
3665.03,0,57,29624,247,-544,-3999,44,-42,-4,32162,28688,32759,-1,-1,0
3665.05,0,57,29639,242,-546,-4004,44,-23,-3,32161,28688,32762,-2,-7,0
3665.08,0,57,29655,249,-542,-3994,37,-33,6,32161,28689,32764,-3,-9,0
3665.08,0,57,29670,242,-544,-3990,56,-30,-6,32161,28686,32762,-2,-2,0
3665.09,0,57,29685,250,-546,-3987,55,-50,4,32163,28688,32764,-5,-1,0
3665.11,0,57,29700,246,-547,-4006,26,-47,12,32162,28688,32764,-3,-2,0
3665.12,0,57,29715,245,-541,-3999,34,-23,3,32161,28688,32763,-2,-5,0
3665.14,0,57,29731,248,-550,-4001,50,-50,15,32163,28688,32763,-3,-3,0
3665.15,0,57,29745,241,-543,-3984,45,-39,6,32163,28688,32763,-6,-6,0
3665.17,0,57,29761,244,-542,-3987,28,-39,-7,32164,28687,32760,-2,-1,0
3665.18,0,57,29776,249,-545,-3990,10,-49,7,32161,28689,32762,-4,-1,0
3665.2,0,57,29791,240,-547,-4018,29,-35,-17,32160,28688,32764,-7,-1,0
3665.21,0,57,29807,242,-539,-4000,46,-26,8,32162,28690,32764,-3,-8,0
3665.23,0,57,29822,246,-551,-3989,31,-21,16,32162,28687,32761,-4,1,0
3665.24,0,57,29837,244,-549,-3983,33,-35,0,32161,28690,32764,-2,-5,0
3665.26,0,57,29852,243,-544,-3991,30,-35,5,32161,28688,32763,-5,-7,0
3665.27,0,57,29867,244,-540,-4011,56,-45,-3,32162,28688,32764,-3,-7,0
3665.29,0,57,29882,237,-550,-3999,29,-39,9,32163,28686,32765,-5,-1,0
3665.3,0,57,29898,249,-541,-3991,30,-49,-6,32163,28687,32759,-3,-2,0
3665.32,0,57,29912,243,-545,-3992,42,-38,-13,32162,28688,32762,-5,-11,0
3665.35,0,57,29928,251,-543,-3989,70,-60,15,32162,28685,32760,-4,-6,0
3665.35,0,57,29943,239,-546,-4017,48,-36,-3,32161,28687,32762,2,-4,0
3665.38,0,57,29958,248,-546,-3995,60,-21,-7,32160,28687,32760,-3,-1,0
3665.38,0,57,29974,250,-543,-3997,33,-38,5,32163,28690,32762,-3,-1,0
3665.41,0,57,29989,245,-545,-3991,14,-38,11,32159,28686,32763,-2,-3,0
3665.41,0,57,30004,243,-546,-3977,50,-37,12,32161,28689,32762,-1,-5,0
3665.44,0,57,30019,243,-538,-4008,54,-37,-16,32162,28688,32760,-1,-1,0
3665.44,0,57,30034,239,-539,-3997,48,-31,8,32161,28687,32762,-5,-1,0
3665.47,0,57,30049,246,-546,-3991,32,-48,-18,32162,28688,32759,-8,-5,0
3665.47,0,57,30065,243,-541,-4001,46,-36,-3,32162,28686,32761,-3,-8,0
3665.5,0,57,30079,245,-545,-3991,31,-29,1,32163,28685,32760,-6,-4,0
3665.5,0,57,30095,246,-541,-3992,40,-48,-6,32162,28689,32762,-1,-3,0
3665.53,0,57,30110,242,-541,-3994,50,-44,-2,32162,28691,32763,-5,-2,0
3665.53,0,57,30125,246,-545,-4005,41,-33,6,32162,28685,32761,-1,-3,0
3665.56,0,57,30141,246,-548,-3990,27,-50,16,32161,28688,32761,-5,-1,0
3665.56,0,57,30156,250,-535,-3983,19,-56,10,32161,28688,32763,-3,-1,0
3665.59,0,57,30171,247,-544,-4003,55,-33,-10,32161,28685,32760,-8,-6,0
3665.59,0,57,30186,239,-551,-3983,51,-43,9,32162,28688,32763,-3,-4,0
3665.62,0,57,30201,242,-548,-4018,23,-23,-5,32161,28687,32760,-4,-8,0
3665.62,0,57,30216,241,-534,-3975,56,-46,-2,32160,28690,32760,-1,-6,0
3665.65,0,57,30232,244,-550,-4006,60,-49,17,32162,28685,32759,-2,-2,0
3665.65,0,57,30246,241,-544,-4002,56,-31,-12,32162,28686,32760,-5,-1,0
3665.68,0,57,30262,242,-542,-3992,42,-29,13,32162,28686,32758,-5,-8,0
3665.68,0,57,30277,244,-543,-3998,23,-34,-6,32162,28687,32763,-2,-3,0
3665.71,0,57,30292,246,-546,-3977,42,-38,-1,32162,28687,32759,-9,-6,0
3665.71,0,57,30308,242,-547,-4012,37,-27,5,32161,28690,32764,-6,-3,0
3665.74,0,57,30323,254,-544,-3998,50,-27,29,32160,28688,32759,2,-2,0
3665.74,0,57,30338,247,-545,-3990,43,-57,14,32161,28688,32761,-6,-4,0
3665.77,0,57,30353,247,-545,-4001,43,-32,12,32162,28690,32760,-3,-2,0
3665.77,0,57,30368,238,-543,-3985,25,-38,-10,32162,28689,32764,-4,-5,0
3665.8,0,57,30383,243,-546,-3999,26,-22,-19,32162,28688,32761,-4,-3,0
3665.8,0,57,30399,243,-550,-4006,54,-50,1,32163,28689,32762,-5,-3,0
3665.83,0,57,30413,247,-545,-3985,56,-56,9,32163,28689,32761,-2,-1,0
3665.83,0,57,30429,247,-545,-3996,23,-38,-3,32161,28687,32760,-2,-5,0
3665.86,0,57,30445,240,-548,-3991,22,-33,4,32163,28687,32760,-1,-5,0
3665.86,0,57,30459,246,-538,-3996,45,-25,8,32163,28689,32763,-6,-5,0
3665.89,0,57,30475,236,-547,-4014,42,-30,4,32162,28688,32762,-5,-6,0
3665.89,0,57,30489,240,-543,-3998,35,-37,2,32161,28687,32763,-2,-6,0
3665.92,0,57,30505,246,-541,-3993,25,-31,-7,32163,28690,32761,-1,-4,0
3665.92,0,57,30520,240,-544,-3995,47,-55,5,32161,28688,32762,-1,-1,0
3665.95,0,57,30535,245,-542,-3987,27,-32,10,32161,28689,32764,2,-4,0
3665.96,0,57,30550,237,-548,-4015,35,-62,1,32162,28689,32763,2,-1,0
3665.98,0,57,30566,243,-544,-3994,49,-21,0,32162,28684,32762,-1,-1,0
3665.99,0,57,30580,245,-539,-3983,22,-49,0,32163,28689,32761,-2,-3,0
3666.01,0,57,30596,236,-538,-3998,43,-49,7,32162,28686,32761,-2,-2,0
3666.02,0,57,30612,244,-535,-3988,40,-10,0,32161,28690,32764,-2,-1,0
3666.04,0,57,30626,242,-549,-3997,19,-54,-17,32162,28685,32758,-1,-4,0
3666.05,0,57,30642,248,-541,-4001,38,-33,10,32161,28688,32762,-1,-2,0
3666.07,0,57,30656,250,-550,-3997,35,-26,-3,32160,28689,32763,-4,-6,0
3666.08,0,57,30672,250,-549,-3995,41,-44,7,32163,28688,32761,-5,-4,0
3666.1,0,57,30687,249,-540,-3988,50,-23,13,32159,28688,32762,-2,12,0
3666.11,0,57,30702,246,-549,-4004,28,-41,-17,32163,28689,32761,-3,-8,0
3666.14,0,57,30717,243,-549,-3986,19,-26,15,32160,28686,32762,-1,-4,0
3666.14,0,57,30733,247,-548,-4011,44,-54,12,32162,28688,32762,-5,-2,0
3666.16,0,57,30747,247,-551,-3989,35,-46,2,32162,28687,32760,-3,-7,0
3666.17,0,57,30763,240,-547,-3994,19,-59,3,32163,28687,32762,-1,-4,0
3666.19,0,57,30779,244,-550,-4010,40,-43,2,32162,28686,32762,-2,-4,0
3666.2,0,57,30793,242,-550,-3980,33,-30,3,32161,28688,32762,-4,-5,0
3666.22,0,57,30809,246,-546,-4013,27,-50,2,32162,28688,32761,-5,-7,0
3666.23,0,57,30823,243,-549,-3991,20,-36,7,32161,28689,32763,-2,-8,0
3666.25,0,57,30839,243,-548,-3994,43,-44,-9,32161,28687,32762,-3,-3,0
3666.26,0,57,30854,240,-544,-4003,27,-44,8,32160,28690,32764,-4,-5,0
3666.28,0,57,30869,246,-546,-3982,35,-16,-3,32163,28688,32762,-3,-9,0
3666.29,0,57,30884,242,-545,-4009,60,-58,7,32161,28688,32761,-2,-4,0
3666.31,0,57,30900,244,-544,-4002,19,-23,-17,32162,28686,32760,-8,-4,0
3666.32,0,57,30915,249,-545,-3993,49,-45,29,32161,28687,32761,-1,-1,0
3666.34,0,57,30930,244,-547,-3995,48,-48,15,32161,28688,32763,-3,-4,0
3666.35,0,57,30946,237,-539,-3994,32,-30,21,32160,28686,32761,-5,-4,0
3666.37,0,57,30960,240,-541,-4002,35,-53,-11,32163,28687,32761,-5,-6,0
3666.38,0,57,30976,243,-544,-3991,32,-31,12,32161,28688,32761,-5,-5,0
3666.4,0,57,30990,246,-541,-3999,39,-31,10,32163,28688,32764,-1,-2,0
3666.41,0,57,31006,234,-542,-3995,55,-54,-14,32162,28690,32762,0,-6,0
3666.43,0,57,31021,243,-551,-3989,39,-25,6,32164,28688,32763,-5,-5,0
3666.44,0,57,31036,241,-546,-3996,36,-52,-7,32162,28690,32761,-2,-5,0
3666.46,0,57,31051,240,-544,-3995,12,-41,-9,32161,28687,32762,-5,-1,0
3666.47,0,57,31067,247,-553,-3995,52,-42,6,32162,28688,32761,-4,-2,0
3666.49,0,57,31082,242,-548,-4000,34,-38,-5,32162,28688,32761,-3,-2,0
3666.5,0,57,31097,245,-545,-3994,54,-44,7,32164,28688,32763,-6,-8,0
3666.52,0,57,31113,244,-549,-3994,42,-22,3,32162,28691,32763,-5,-5,0
3666.53,0,57,31127,244,-544,-3993,36,-56,-3,32161,28690,32762,-6,-3,0
3666.55,0,57,31143,238,-542,-4009,51,-36,-8,32163,28688,32763,-1,-2,0
3666.58,0,57,31158,243,-549,-3986,46,-46,-1,32162,28691,32763,-2,-5,0
3666.58,0,57,31173,245,-536,-3999,22,-37,3,32162,28689,32760,-1,-4,0
3666.61,0,57,31188,239,-538,-3991,41,-48,2,32160,28689,32763,-4,-4,0
3666.61,0,57,31203,241,-550,-3995,50,-20,-2,32161,28688,32760,-3,-6,0
3666.64,0,57,31219,242,-538,-4006,47,-48,7,32163,28689,32763,-5,-3,0
3666.64,0,57,31234,244,-542,-3996,44,-30,0,32162,28690,32762,-3,-3,0
3666.67,0,57,31249,245,-542,-3994,43,-64,0,32162,28690,32760,-2,-4,0
3666.67,0,57,31264,243,-544,-4006,23,-42,11,32161,28688,32762,-2,-3,0
3666.7,0,57,31280,249,-548,-3994,38,-25,15,32163,28686,32760,-2,-3,0
3666.7,0,57,31294,248,-554,-4007,42,-40,0,32160,28688,32761,-1,-5,0
3666.73,0,57,31310,244,-544,-3994,23,-40,2,32160,28692,32762,-1,-8,0
3666.73,0,57,31324,246,-541,-3995,25,-49,4,32163,28689,32760,-4,-7,0
3666.76,0,57,31340,247,-552,-3998,42,-39,-6,32162,28688,32762,-3,-2,0
3666.76,0,57,31355,245,-547,-3993,48,-29,13,32162,28690,32763,-7,-2,0
3666.79,0,57,31370,242,-545,-3996,27,-32,13,32162,28689,32758,-3,-4,0
3666.8,0,57,31386,245,-545,-3992,32,-29,-5,32162,28688,32761,-9,-4,0
3666.82,0,57,31401,246,-546,-3997,33,-55,7,32162,28689,32762,-1,-2,0
3666.82,0,57,31416,244,-543,-3997,51,-47,-13,32162,28689,32764,-3,-3,0
3666.85,0,57,31431,244,-547,-3983,51,-26,-4,32162,28689,32761,-2,-1,0
3666.85,0,57,31447,241,-547,-3996,24,-33,3,32163,28688,32760,-1,-3,0
3666.88,0,57,31461,238,-545,-3988,51,-38,-6,32162,28686,32759,-3,-4,0
3666.88,0,57,31477,244,-546,-3997,42,-50,24,32161,28689,32763,-5,-1,0
3666.91,0,57,31491,241,-540,-4007,48,-35,4,32162,28688,32760,-2,-6,0
3666.91,0,57,31507,243,-540,-3978,31,-53,3,32163,28690,32765,-1,-3,0
3666.94,0,57,31522,245,-538,-4006,47,-64,2,32161,28688,32761,-1,-1,0
3666.94,0,57,31537,232,-550,-4001,39,-19,10,32161,28691,32763,-4,-3,0
3666.97,0,57,31553,251,-535,-3975,25,-24,29,32162,28688,32760,-3,-5,0
3666.97,0,57,31568,238,-547,-4019,32,-29,-25,32164,28689,32761,-4,-2,0
3667,0,57,31583,246,-547,-3977,21,-45,4,32162,28685,32760,-1,-5,0
3667,0,57,31598,246,-546,-3999,39,-41,-10,32161,28689,32763,-2,-7,0
3667.03,0,57,31614,242,-547,-4002,32,-21,12,32162,28689,32763,-2,-3,0
3667.04,0,57,31628,248,-544,-3977,65,-46,5,32162,28689,32761,-1,-6,0
3667.06,0,57,31644,237,-549,-4018,43,-43,6,32161,28687,32761,-1,-8,0
3667.06,0,57,31658,240,-543,-3974,50,-22,-4,32162,28689,32762,-2,-3,0
3667.09,0,57,31674,251,-545,-4008,30,-58,-7,32162,28689,32762,-2,-1,0
3667.09,0,57,31690,234,-538,-4000,54,-30,7,32161,28690,32762,-1,-4,0
3667.12,0,57,31704,248,-548,-3988,68,-50,2,32162,28689,32761,-7,-1,0
3667.12,0,57,31720,248,-540,-4014,41,-36,2,32160,28686,32763,-3,-3,0
3667.15,0,57,31735,239,-551,-3970,22,-28,6,32160,28690,32766,-1,-7,0
3667.15,0,57,31750,244,-546,-4004,36,-63,-8,32163,28688,32760,-4,-3,0
3667.18,0,57,31765,237,-551,-4002,34,-29,2,32163,28687,32760,0,-3,0
3667.18,0,57,31781,244,-546,-3992,41,-34,-3,32163,28688,32760,-3,-6,0
3667.21,0,57,31795,245,-542,-4006,29,-31,7,32160,28689,32761,-3,-4,0
3667.22,0,57,31811,239,-545,-4003,48,-63,4,32162,28691,32764,-5,-2,0
3667.24,0,57,31825,249,-545,-3992,36,-51,4,32162,28687,32762,-2,-6,0
3667.25,0,57,31841,244,-545,-4002,47,-21,6,32162,28691,32761,-4,-3,0
3667.27,0,57,31857,243,-542,-3992,45,-55,6,32161,28689,32762,-3,-3,0
3667.28,0,57,31871,242,-542,-3998,47,-27,18,32163,28689,32762,-3,-5,0
3667.3,0,57,31887,243,-546,-4003,33,-46,5,32162,28689,32761,-2,-5,0
3667.31,0,57,31902,246,-544,-3999,44,-53,-5,32163,28689,32764,-6,-5,0
3667.33,0,57,31917,244,-548,-3997,52,-38,0,32163,28688,32760,-5,-2,0
3667.34,0,57,31932,242,-546,-3996,34,-27,14,32160,28690,32764,-3,-3,0
3667.36,0,57,31948,246,-546,-3987,47,-19,-7,32161,28689,32761,-2,-5,0
3667.37,0,57,31962,242,-541,-3992,47,-42,6,32162,28688,32761,-3,-1,0
3667.39,0,57,31978,241,-548,-3993,50,-19,-2,32161,28689,32760,-1,-4,0
3667.4,0,57,31992,250,-555,-3979,23,-15,4,32161,28687,32762,-5,-6,0
3667.42,0,57,32008,250,-543,-3985,21,-35,12,32162,28690,32765,-3,-3,0
3667.43,0,57,32024,249,-530,-4018,29,-58,-14,32162,28688,32762,-1,6,0
3667.45,0,57,32038,243,-575,-3993,92,-49,-4,32161,28691,32763,-2,-2,0
3667.46,0,57,32054,246,-552,-3955,-20,-28,-2,32162,28688,32763,-3,-5,0
3667.48,0,57,32069,240,-521,-4008,20,-37,-18,32162,28688,32761,-1,-3,0
3667.49,0,57,32084,240,-547,-4006,103,-47,7,32161,28688,32761,-9,0,0
3667.51,0,57,32099,252,-560,-4014,0,-13,1,32161,28688,32762,-6,-7,0
3667.52,0,57,32114,238,-552,-3981,1,-10,6,32159,28690,32761,-2,-4,0
3667.54,0,57,32129,250,-528,-3947,42,-24,9,32161,28685,32763,-5,-6,0
3667.55,0,57,32145,248,-543,-4027,50,-97,15,32162,28688,32762,-5,-9,0
3667.57,0,57,32159,235,-548,-4017,50,-19,-2,32160,28687,32763,-2,-5,0
3667.58,0,57,32175,248,-547,-4004,16,-10,11,32161,28689,32763,-2,-1,0
3667.6,0,57,32191,249,-536,-3992,26,-55,8,32160,28690,32761,-3,-5,0
3667.61,0,57,32205,243,-535,-3973,62,-88,11,32162,28689,32763,-3,-5,0
3667.63,0,57,32221,230,-548,-4025,68,-28,-2,32162,28688,32762,2,-1,0
3667.64,0,57,32236,240,-548,-3994,22,1,18,32162,28691,32763,-3,-4,0
3667.66,0,57,32251,258,-532,-3996,30,-35,0,32161,28689,32760,-5,-6,0
3667.67,0,57,32266,245,-544,-3987,40,-79,0,32162,28689,32763,-7,-8,0
3667.69,0,57,32281,237,-554,-4004,58,-36,21,32161,28686,32760,-6,-2,0
3667.7,0,57,32296,247,-540,-4019,21,-15,9,32161,28686,32761,-6,-5,0
3667.72,0,57,32312,246,-539,-3988,33,-30,6,32162,28690,32763,-2,-6,0
3667.73,0,57,32327,248,-551,-4004,68,-57,5,32161,28690,32762,-5,-4,0
3667.75,0,57,32342,241,-550,-3996,59,-48,6,32162,28688,32765,-1,-6,0
3667.76,0,57,32358,244,-536,-3996,32,-16,16,32162,28689,32763,-3,-1,0
3667.78,0,57,32372,256,-546,-3989,47,-37,-3,32162,28690,32764,-5,-5,0
3667.79,0,57,32388,242,-549,-3998,44,-49,8,32162,28689,32765,-1,-2,0
3667.82,0,57,32403,240,-544,-4004,30,-12,-6,32160,28687,32762,-3,-7,0
3667.84,0,57,32418,238,-546,-3995,53,-25,6,32162,28690,32761,-1,-4,0
3667.84,0,57,32433,250,-543,-3985,18,-26,5,32160,28691,32764,-3,-6,0
3667.87,0,57,32448,248,-540,-3999,40,-49,-8,32163,28688,32762,-5,-5,0
3667.87,0,57,32463,241,-544,-4008,46,-9,6,32161,28688,32762,-7,-4,0
3667.9,0,57,32479,246,-544,-3985,31,-35,11,32161,28689,32761,-4,-2,0
3667.9,0,57,32494,245,-541,-4005,49,-50,-3,32161,28687,32764,-1,-5,0
3667.93,0,57,32509,240,-546,-3986,31,-28,24,32163,28688,32764,-3,-1,0
3667.93,0,57,32525,242,-550,-3996,16,-27,-11,32162,28690,32761,-5,-5,0
3667.96,0,57,32539,244,-542,-3995,45,-30,7,32160,28690,32762,-16,-7,0
3667.96,0,57,32555,241,-547,-3986,70,-43,5,32160,28689,32763,-3,-3,0
3667.99,0,57,32570,240,-547,-3996,28,-65,-4,32162,28689,32760,-6,0,0
3667.99,0,57,32585,238,-536,-3997,16,-27,3,32161,28689,32761,-5,-6,0
3668.02,0,57,32600,249,-548,-4000,42,-41,9,32162,28688,32760,-4,-3,0
3668.02,0,57,32615,237,-550,-3994,23,-49,3,32161,28688,32763,-5,-9,0
3668.05,0,57,32631,242,-540,-3996,36,-44,-4,32161,28686,32758,-3,-3,0
3668.05,0,57,32646,238,-544,-3991,55,-39,1,32163,28687,32761,-5,-5,0
3668.08,0,57,32661,241,-547,-3995,34,-41,-2,32161,28687,32757,-4,-5,0
3668.08,0,57,32676,242,-544,-4000,44,-53,1,32161,28688,32764,-5,-2,0
3668.11,0,57,32692,249,-551,-3999,71,-30,7,32162,28685,32760,-6,-5,0
3668.11,0,57,32706,248,-548,-3990,52,-44,4,32161,28689,32764,-3,-5,0
3668.14,0,57,32722,246,-542,-3998,54,-66,2,32160,28689,32761,-3,-6,0
3668.14,0,57,32737,238,-547,-4003,48,-19,-5,32162,28688,32763,-4,-6,0
3668.17,0,57,32752,249,-544,-3996,40,-54,3,32161,28688,32761,-3,-5,0
3668.17,0,57,32767,245,-546,-3990,37,-59,15,32162,28689,32762,-1,-2,0
3668.2,0,57,-32754,243,-547,-3996,41,-16,1,32161,28687,32758,-6,2,0
3668.2,0,57,-32738,235,-553,-3991,27,-33,2,32160,28689,32761,-3,-2,0
3668.23,0,57,-32723,240,-547,-3990,36,-37,9,32160,28689,32762,-6,-5,0
3668.23,0,57,-32708,244,-542,-3992,26,-40,-3,32162,28686,32758,-1,-3,0
3668.26,0,57,-32693,246,-545,-4012,43,-28,2,32162,28689,32761,-2,-3,0
3668.26,0,57,-32677,240,-552,-3995,32,-52,-11,32163,28689,32762,-1,3,0
3668.29,0,57,-32663,247,-545,-3981,47,-38,9,32161,28687,32761,-5,-4,0
3668.29,0,57,-32647,249,-542,-4004,24,-31,7,32162,28689,32766,-5,-9,0
3668.32,0,57,-32632,245,-534,-3995,29,-42,-10,32161,28689,32763,-3,-1,0
3668.32,0,57,-32617,242,-544,-4016,66,-28,-3,32163,28688,32762,-3,-1,0
3668.35,0,57,-32602,243,-550,-3999,13,-23,14,32162,28687,32762,-1,-3,0
3668.35,0,57,-32587,248,-547,-3973,38,-35,12,32163,28687,32763,-2,-1,0
3668.38,0,57,-32571,240,-538,-3983,55,-36,-9,32163,28688,32761,-5,-4,0
3668.38,0,57,-32556,242,-539,-3997,55,-40,-2,32163,28688,32761,-5,-2,0
3668.41,0,57,-32541,245,-550,-4008,34,-45,1,32160,28688,32762,-1,-5,0
3668.41,0,57,-32526,253,-548,-3984,30,-32,4,32161,28689,32762,0,-5,0
3668.44,0,57,-32510,252,-544,-3997,28,-26,15,32162,28685,32761,-4,-5,0
3668.45,0,57,-32496,249,-542,-3985,60,-47,-4,32162,28688,32762,-2,-5,0
3668.47,0,57,-32480,239,-552,-3999,35,-30,-2,32161,28688,32763,-3,-3,0
3668.48,0,57,-32465,242,-544,-4013,46,-32,9,32161,28690,32762,-2,-3,0
3668.5,0,57,-32450,252,-546,-3981,35,-46,1,32163,28689,32760,-2,-4,0
3668.51,0,57,-32435,247,-542,-4003,33,-43,-10,32162,28688,32762,-4,-6,0
3668.54,0,57,-32420,239,-544,-3986,41,-33,16,32162,28687,32764,-2,-7,0
3668.54,0,57,-32404,247,-547,-4001,49,-11,0,32163,28687,32761,-3,-6,0
3668.56,0,57,-32389,238,-550,-3996,39,-48,-1,32163,28687,32761,-3,-6,0
3668.57,0,57,-32374,247,-544,-3992,32,-33,-14,32161,28688,32760,-2,-6,0
3668.59,0,57,-32359,246,-543,-3996,34,-36,2,32162,28687,32761,1,4,0
3668.6,0,57,-32343,242,-540,-3990,32,-48,1,32163,28689,32762,-2,-6,0
3668.62,0,57,-32329,245,-542,-4015,33,-15,-3,32162,28689,32759,-2,-13,0
3668.63,0,57,-32313,243,-545,-3984,56,-46,0,32162,28688,32762,-1,-4,0
3668.66,0,57,-32298,242,-546,-4001,28,-49,-3,32162,28689,32762,-3,-1,0
3668.66,0,57,-32283,237,-538,-3983,34,-29,-5,32162,28689,32759,-2,-3,0
3668.68,0,57,-32267,246,-554,-4000,51,-31,-4,32162,28687,32759,-6,-1,0
3668.69,0,57,-32253,244,-546,-3994,22,-41,4,32162,28687,32761,-4,-1,0
3668.71,0,57,-32237,250,-547,-4005,33,-31,1,32163,28687,32760,-5,-7,0
3668.72,0,57,-32222,248,-543,-4000,34,-33,4,32162,28689,32761,-5,-5,0
3668.74,0,57,-32207,246,-547,-3994,32,-48,-1,32164,28688,32761,-4,-1,0
3668.75,0,57,-32192,250,-538,-3999,50,-21,8,32162,28688,32764,-4,-5,0
3668.78,0,57,-32176,242,-540,-3997,43,-22,-1,32164,28689,32762,-3,-1,0
3668.78,0,57,-32162,250,-547,-3992,54,-28,0,32161,28687,32764,-2,-6,0
3668.8,0,57,-32146,242,-542,-3987,30,-45,10,32162,28688,32763,-8,-2,0
3668.81,0,57,-32131,248,-545,-4003,48,-43,-14,32163,28690,32765,-2,-5,0
3668.83,0,57,-32116,244,-544,-3995,28,-34,-10,32162,28691,32764,-4,-2,0
3668.84,0,57,-32100,253,-543,-4003,36,-40,11,32163,28690,32763,-1,-5,0
3668.86,0,57,-32086,243,-544,-3999,34,-10,-4,32162,28687,32763,-5,-3,0
3668.87,0,57,-32070,248,-542,-3981,23,-47,8,32164,28687,32761,-1,-10,0
3668.89,0,57,-32055,242,-542,-3999,41,-28,16,32163,28688,32761,-4,-2,0
3668.9,0,57,-32040,243,-540,-3989,55,-28,-7,32162,28688,32762,-3,-5,0
3668.92,0,57,-32025,241,-552,-4009,26,-32,6,32163,28689,32766,-3,-2,0
3668.93,0,57,-32009,245,-540,-3998,38,-21,4,32162,28688,32763,-5,-1,0
3668.95,0,57,-31995,250,-543,-3980,36,-46,11,32162,28688,32765,-2,-2,0
3668.96,0,57,-31979,246,-552,-4005,59,-45,-10,32163,28689,32763,-5,-3,0
3668.98,0,57,-31963,243,-546,-3988,39,-54,6,32163,28688,32764,-2,-3,0
3668.99,0,57,-31949,250,-541,-4011,33,-35,9,32163,28688,32765,-2,-1,0
3669.01,0,57,-31933,242,-540,-3992,39,-47,-12,32165,28687,32761,-2,0,0
3669.02,0,57,-31919,247,-550,-3985,54,-60,8,32162,28690,32765,-9,-6,0
3669.04,0,57,-31903,238,-543,-4012,45,-35,1,32163,28689,32762,-5,-2,0
3669.07,0,57,-31888,249,-543,-3978,39,-27,-3,32163,28687,32759,-2,-5,0
3669.07,0,57,-31873,249,-546,-4001,35,-59,-19,32162,28686,32761,-1,-5,0
3669.1,0,57,-31857,244,-545,-4000,26,-48,14,32163,28689,32760,-2,-6,0
3669.1,0,57,-31842,241,-540,-3993,28,-23,5,32163,28689,32764,-3,-8,0
3669.13,0,57,-31828,250,-549,-4008,59,-49,-14,32160,28690,32763,-2,-7,0
3669.13,0,57,-31812,247,-546,-3980,53,-50,1,32163,28687,32764,-5,-5,0
3669.16,0,57,-31797,244,-542,-4008,36,-63,-5,32163,28688,32762,-1,-2,0
3669.16,0,57,-31782,241,-545,-3984,63,-29,3,32163,28688,32764,-14,-11,0
3669.19,0,57,-31766,251,-541,-3988,33,-36,1,32162,28687,32761,-3,-5,0
3669.19,0,57,-31752,243,-541,-4008,33,-32,4,32163,28689,32763,-3,-1,0
3669.22,0,57,-31736,246,-540,-3980,51,-38,-1,32163,28688,32760,1,-5,0
3669.22,0,57,-31721,248,-545,-4002,25,-30,-14,32162,28690,32761,-6,-5,0
3669.25,0,57,-31706,245,-545,-3995,35,-32,0,32163,28687,32758,-4,-4,0
3669.25,0,57,-31691,242,-546,-3984,43,-35,10,32163,28689,32761,-2,-1,0
3669.28,0,57,-31675,245,-546,-4006,37,-37,8,32162,28687,32758,-9,-2,0
3669.28,0,57,-31661,244,-545,-3996,20,-17,12,32163,28688,32759,-3,-7,0
3669.31,0,57,-31645,249,-543,-3992,47,-40,0,32162,28688,32761,-2,-3,0
3669.32,0,57,-31630,244,-546,-4005,60,-36,3,32161,28687,32764,-4,-1,0
3669.34,0,57,-31615,249,-547,-3989,10,-29,-2,32164,28686,32761,-2,-4,0
3669.34,0,57,-31599,240,-541,-3995,40,-36,0,32162,28687,32762,-2,-1,0
3669.37,0,57,-31585,237,-548,-3996,66,-30,-3,32164,28684,32757,-1,-1,0
3669.38,0,57,-31569,248,-545,-3993,36,-40,4,32162,28689,32762,-1,2,0
3669.4,0,57,-31554,244,-537,-4012,47,-28,-8,32162,28686,32759,-5,-3,0
3669.4,0,57,-31539,242,-544,-3978,36,-30,0,32162,28687,32762,-18,-2,0
3669.43,0,57,-31524,248,-545,-3996,28,-57,-2,32162,28688,32764,-1,-6,0
3669.43,0,57,-31508,241,-546,-4014,50,-34,-6,32163,28683,32758,-4,-5,0
3669.46,0,57,-31494,251,-552,-3978,40,-34,2,32163,28689,32760,-3,-7,0
3669.46,0,57,-31478,248,-549,-4009,33,-47,0,32162,28689,32763,-2,-1,0
3669.49,0,57,-31463,240,-543,-3994,35,-22,12,32163,28687,32761,-1,-3,0
3669.49,0,57,-31448,247,-544,-3986,37,-41,-4,32162,28688,32764,-5,-3,0
3669.52,0,57,-31432,240,-544,-3997,31,-52,3,32162,28686,32760,-4,-6,0
3669.52,0,57,-31418,245,-551,-3994,25,-25,4,32164,28688,32762,-5,-3,0
3669.55,0,57,-31402,247,-548,-3985,44,-53,6,32163,28689,32759,-4,-3,0
3669.55,0,57,-31387,244,-543,-3996,40,-42,-7,32162,28687,32760,-3,-1,0
3669.58,0,57,-31372,244,-546,-4004,35,-41,14,32163,28686,32760,-5,-4,0
3669.58,0,57,-31357,237,-536,-4000,48,-53,14,32164,28688,32761,-4,-5,0
3669.61,0,57,-31341,237,-544,-4013,32,-53,18,32163,28687,32761,-5,-3,0
3669.61,0,57,-31327,247,-548,-3958,33,-43,7,32162,28692,32761,-3,-2,0
3669.65,0,57,-31311,246,-542,-3997,26,-40,-14,32164,28687,32759,-4,-3,0
3669.65,0,57,-31296,242,-541,-3999,81,-50,6,32162,28689,32762,-6,-1,0
3669.67,0,57,-31281,246,-551,-4000,65,-64,-8,32163,28688,32764,-1,-2,0
3669.68,0,57,-31265,241,-554,-4044,38,-27,10,32161,28687,32763,-4,-4,0
3669.7,0,57,-31251,250,-536,-3930,39,-56,0,32162,28689,32761,-4,-5,0
3669.71,0,57,-31235,242,-534,-4016,71,-48,8,32162,28686,32764,-5,-4,0
3669.73,0,57,-31220,233,-544,-4002,53,-30,23,32164,28689,32761,-6,-6,0
3669.74,0,57,-31205,245,-548,-4009,26,-26,-2,32164,28688,32762,-5,-4,0
3669.76,0,57,-31190,241,-541,-4010,44,-31,-12,32161,28687,32762,-4,-1,0
3669.77,0,57,-31174,248,-546,-3951,39,-45,13,32163,28686,32765,13,0,0
3669.79,0,57,-31159,244,-544,-4013,36,-60,-10,32162,28686,32761,-3,-4,0
3669.8,0,57,-31144,232,-541,-3986,44,-21,-20,32162,28687,32760,-1,-4,0
3669.82,0,57,-31129,248,-546,-4017,69,-40,9,32162,28687,32761,-1,-6,0
3669.83,0,57,-31114,246,-549,-4010,24,-52,-4,32160,28688,32762,-3,-8,0
3669.85,0,57,-31098,239,-546,-3978,40,-51,3,32161,28689,32764,-5,-5,0
3669.86,0,57,-31084,248,-541,-3991,31,-47,-2,32163,28687,32763,-3,2,0
3669.88,0,57,-31068,243,-544,-3995,47,-25,8,32162,28687,32762,-3,-5,0
3669.89,0,57,-31053,245,-542,-4005,35,-34,2,32162,28686,32760,-4,-2,0
3669.91,0,57,-31038,240,-547,-3993,18,-30,-10,32163,28686,32759,-2,-4,0
3669.92,0,57,-31023,246,-544,-3988,49,-55,7,32163,28688,32764,-1,-2,0
3669.94,0,57,-31007,249,-538,-3985,31,-59,4,32163,28688,32759,-6,-7,0
3669.95,0,57,-30992,240,-539,-4010,58,-73,1,32162,28687,32762,-1,-4,0
3669.98,0,57,-30977,245,-553,-4012,40,-42,3,32161,28687,32761,2,-4,0
3669.98,0,57,-30962,243,-541,-4004,25,-45,20,32162,28688,32762,-2,-6,0
3670,0,57,-30947,248,-535,-3997,50,-24,-1,32162,28686,32761,-6,-7,0
3670.01,0,57,-30931,248,-544,-3978,61,-45,16,32161,28687,32763,-4,-3,0
3670.06,0,57,-30917,248,-542,-4025,29,-41,3,32163,28688,32762,-1,-2,0
3670.06,0,57,-30901,248,-547,-3982,60,-28,15,32162,28687,32763,-1,-4,0
3670.06,0,57,-30886,245,-546,-3994,47,-50,-6,32161,28688,32762,-6,-3,0
3670.1,0,57,-30868,235,-542,-3988,33,-50,1,32163,28686,32764,-3,-4,0
3670.12,0,57,-30855,236,-544,-3990,51,-33,-6,32163,28688,32764,-5,-6,0
3670.12,0,57,-30840,240,-551,-4011,37,-30,-11,32161,28686,32761,-1,-7,0
3670.12,0,57,-30825,240,-546,-3993,28,-40,4,32160,28690,32764,-2,-3,0
3670.15,0,57,-30808,243,-542,-3995,29,-40,2,32161,28688,32764,-5,-3,0
3670.15,0,57,-30795,239,-534,-4001,49,-38,-11,32164,28686,32764,-5,-2,0
3670.16,0,57,-30780,242,-539,-4012,50,-35,2,32161,28688,32761,-1,-3,0
3670.18,0,57,-30764,239,-548,-3997,45,-50,-7,32161,28689,32764,-2,-5,0
3670.19,0,57,-30750,242,-546,-4003,33,-36,5,32161,28689,32760,-2,-5,0
3670.21,0,57,-30734,244,-539,-3984,26,-32,10,32160,28687,32762,-2,-2,0
3670.22,0,57,-30719,245,-540,-3990,53,-30,3,32163,28689,32763,-4,-4,0
3670.24,0,57,-30704,244,-546,-4011,60,-38,2,32162,28689,32766,-5,-5,0
3670.25,0,57,-30688,246,-550,-3994,26,-24,0,32162,28687,32760,-1,-2,0
3670.27,0,57,-30673,245,-548,-3986,16,-28,0,32161,28687,32763,-1,-7,0
3670.28,0,57,-30658,246,-542,-3986,30,-35,10,32161,28689,32762,-2,-4,0
3670.3,0,57,-30643,244,-550,-3990,53,-21,-15,32162,28688,32763,-6,-5,0
3670.33,0,57,-30628,246,-546,-4006,35,-27,4,32161,28690,32765,-4,-5,0
3670.33,0,57,-30613,245,-538,-3999,28,-25,-10,32161,28686,32759,-7,-4,0
3670.36,0,57,-30597,240,-543,-3979,56,-57,9,32160,28688,32762,-1,-5,0
3670.36,0,57,-30583,245,-549,-4003,39,-15,-7,32159,28688,32761,-3,-2,0
3670.39,0,57,-30567,246,-545,-4001,24,-30,15,32160,28689,32762,-3,-2,0
3670.39,0,57,-30552,248,-538,-3994,34,-28,3,32162,28688,32761,-1,-7,0
3670.42,0,57,-30537,245,-544,-4004,67,-60,3,32161,28689,32762,-2,3,0
3670.42,0,57,-30521,238,-547,-3995,53,-20,4,32161,28689,32763,-1,-3,0
3670.45,0,57,-30506,248,-546,-4002,38,-31,14,32162,28684,32760,-3,-3,0
3670.45,0,57,-30491,240,-545,-3985,34,-26,-14,32161,28688,32763,-2,-7,0
3670.48,0,57,-30476,241,-538,-4000,31,-71,0,32161,28688,32759,-5,-5,0
3670.48,0,57,-30461,239,-548,-4003,32,-48,1,32162,28688,32761,-2,-1,0
3670.51,0,57,-30446,242,-543,-4001,45,-36,-1,32162,28688,32762,-1,-2,0
3670.51,0,57,-30430,254,-545,-3999,50,-23,12,32162,28688,32764,-1,-3,0
3670.54,0,57,-30416,243,-546,-3992,40,-59,7,32161,28686,32759,-1,-2,0
3670.54,0,57,-30400,246,-546,-4003,25,-52,1,32161,28688,32763,-4,-5,0
3670.57,0,57,-30385,244,-538,-3987,27,-56,-1,32164,28687,32761,-6,-1,0
3670.57,0,57,-30370,245,-544,-4005,39,-52,-10,32161,28687,32763,-7,-5,0
3670.6,0,57,-30354,243,-550,-4002,34,-66,4,32161,28687,32760,-5,-2,0
3670.6,0,57,-30339,240,-558,-3982,51,-48,7,32161,28686,32763,-3,-1,0
3670.63,0,57,-30324,247,-545,-4004,44,-39,4,32161,28689,32760,-5,-1,0
3670.63,0,57,-30309,240,-544,-3982,37,-29,13,32163,28686,32758,-3,-4,0
3670.66,0,57,-30294,246,-540,-3982,34,-51,15,32159,28689,32762,-2,-6,0
3670.66,0,57,-30279,240,-542,-4043,30,-40,2,32162,28689,32765,-3,-1,0
3670.69,0,57,-30263,237,-550,-3981,32,-14,-4,32160,28688,32761,-4,-2,0
3670.69,0,57,-30249,242,-541,-4001,31,-55,0,32162,28690,32763,-3,-2,0
3670.72,0,57,-30233,233,-546,-4005,41,-29,6,32161,28686,32761,-1,-3,0
3670.72,0,57,-30218,242,-546,-3968,64,-33,-4,32161,28688,32763,-2,-5,0
3670.75,0,57,-30203,242,-547,-4032,25,-29,12,32160,28686,32761,-6,-5,0
3670.75,0,57,-30187,234,-546,-3978,32,-19,7,32163,28688,32761,-6,-5,0
3670.78,0,57,-30172,248,-548,-3995,55,-49,7,32162,28688,32762,-3,-1,0
3670.78,0,57,-30157,241,-544,-3996,21,-58,9,32162,28689,32759,-1,-7,0
3670.81,0,57,-30142,237,-542,-3989,65,-26,-4,32162,28690,32761,-9,-3,0
3670.81,0,57,-30127,247,-547,-4007,50,-36,-6,32162,28689,32764,-6,-6,0
3670.84,0,57,-30112,241,-556,-3985,23,-36,-3,32163,28687,32758,-2,-6,0
3670.84,0,57,-30096,248,-536,-3984,45,-49,9,32161,28689,32763,2,0,0
3670.87,0,57,-30081,245,-543,-3987,52,-49,-18,32162,28689,32762,-5,-6,0
3670.87,0,57,-30066,242,-545,-4000,31,-31,1,32161,28690,32762,-7,-5,0
3670.9,0,57,-30050,248,-547,-3991,21,-26,-9,32161,28688,32762,-1,-5,0
3670.9,0,57,-30036,243,-541,-3986,46,-54,-16,32163,28689,32763,-6,-8,0
3670.93,0,57,-30020,244,-547,-4002,38,-59,10,32161,28691,32764,-3,-5,0
3670.94,0,57,-30005,239,-546,-3995,29,-25,1,32161,28689,32763,-1,1,0
3670.96,0,57,-29990,244,-544,-3992,35,-36,13,32163,28690,32761,-4,-3,0
3670.97,0,57,-29975,248,-553,-4005,27,-35,0,32162,28688,32763,-3,-4,0
3670.99,0,57,-29960,246,-543,-3978,17,-32,10,32161,28690,32761,-1,-3,0
3671,0,57,-29945,246,-540,-4008,70,-59,-17,32161,28689,32764,-3,-5,0
3671.02,0,57,-29929,248,-547,-3987,39,-43,7,32161,28692,32763,-4,-3,0
3671.03,0,57,-29915,248,-545,-3996,30,-39,4,32162,28689,32761,-4,-3,0
3671.05,0,57,-29899,241,-549,-4006,49,-40,-2,32161,28692,32767,-4,-4,0
3671.06,0,57,-29883,242,-548,-3976,41,-18,9,32162,28687,32763,-2,-3,0
3671.08,0,57,-29869,245,-541,-4002,35,-52,2,32162,28688,32761,-2,-5,0
3671.09,0,57,-29853,242,-543,-3990,32,-50,4,32162,28688,32762,-5,-2,0
3671.11,0,57,-29838,247,-552,-4000,47,-40,-9,32162,28688,32761,-3,-2,0
3671.12,0,57,-29823,248,-547,-4005,41,-40,17,32162,28689,32764,-2,-1,0
3671.14,0,57,-29808,238,-543,-3984,28,-19,5,32162,28690,32759,-1,-1,0
3671.15,0,57,-29793,246,-549,-3992,67,-41,11,32160,28689,32761,-5,-2,0
3671.17,0,57,-29778,248,-547,-4004,29,-37,-7,32160,28689,32760,-2,-3,0
3671.18,0,57,-29762,241,-539,-3997,39,-13,-8,32162,28691,32762,-3,-7,0
3671.21,0,57,-29748,251,-550,-3990,45,-24,6,32161,28689,32765,-7,-1,0
3671.21,0,57,-29732,242,-548,-4004,39,-59,6,32160,28689,32763,-5,-3,0
3671.23,0,57,-29716,241,-546,-3988,54,-35,0,32162,28688,32757,-5,-1,0
3671.24,0,57,-29702,244,-547,-4001,42,-39,13,32161,28691,32766,-1,-2,0
3671.26,0,57,-29686,245,-543,-4001,27,-35,-4,32161,28687,32762,2,-10,0
3671.29,0,57,-29672,241,-543,-3990,46,-39,1,32162,28688,32761,-2,-4,0
3671.29,0,57,-29656,246,-541,-3998,34,-41,11,32162,28688,32762,-3,1,0
3671.3,0,57,-29641,243,-544,-3992,62,-33,-11,32162,28688,32762,-3,-7,0
3671.32,0,57,-29626,242,-551,-3993,51,-42,-5,32160,28691,32765,-1,-1,0
3671.33,0,57,-29611,243,-546,-4003,28,-25,8,32163,28688,32761,-4,-3,0
3671.35,0,57,-29595,246,-541,-3997,43,-45,4,32162,28689,32761,-2,-5,0
3671.36,0,57,-29581,244,-545,-3982,38,-51,1,32160,28689,32764,-6,-4,0
3671.38,0,57,-29565,245,-548,-3996,44,-22,-8,32161,28689,32762,-3,-7,0
3671.39,0,57,-29549,242,-546,-4003,35,-53,-4,32163,28690,32762,-3,-5,0
3671.41,0,57,-29535,249,-540,-3984,35,-37,6,32162,28689,32762,-2,-1,0
3671.44,0,57,-29519,248,-549,-3992,39,-60,2,32161,28686,32761,-3,-5,0
3671.44,0,57,-29505,243,-550,-4003,62,-32,-2,32163,28690,32763,-2,-2,0
3671.45,0,57,-29489,245,-547,-3987,44,-37,2,32162,28688,32761,-1,-5,0
3671.47,0,57,-29474,242,-550,-4008,26,-44,6,32162,28689,32762,-5,-3,0
3671.48,0,57,-29459,242,-539,-3985,48,-39,-6,32162,28690,32762,-1,-4,0
3671.5,0,57,-29444,237,-550,-3999,50,-38,10,32161,28689,32763,-4,-2,0
3671.53,0,57,-29428,243,-548,-4004,34,-51,-3,32162,28688,32763,-1,-3,0
3671.54,0,57,-29413,245,-545,-3986,38,-46,-8,32162,28690,32764,-3,-7,0
3671.56,0,57,-29398,244,-545,-3999,39,-37,-2,32161,28691,32764,-5,-3,0
3671.56,0,57,-29382,243,-550,-3988,7,-38,6,32161,28689,32763,-4,-3,0
3671.59,0,57,-29368,243,-548,-3993,30,-25,-10,32161,28689,32763,-4,-5,0
3671.59,0,57,-29352,248,-546,-3999,43,-39,12,32164,28688,32760,-5,-7,0
3671.62,0,57,-29338,239,-549,-3994,62,-46,0,32162,28689,32760,-1,-2,0
3671.62,0,57,-29322,243,-544,-4001,46,-49,15,32161,28688,32760,-3,-5,0
3671.65,0,57,-29307,244,-547,-3995,42,-20,11,32162,28686,32761,-1,-6,0
3671.66,0,57,-29292,245,-547,-3990,61,-45,10,32161,28688,32761,-6,-1,0
3671.68,0,57,-29277,246,-553,-4005,39,-40,-2,32161,28688,32760,-5,-6,0
3671.68,0,57,-29261,244,-547,-3998,23,-10,0,32162,28688,32763,-2,-8,0
3671.71,0,57,-29246,248,-542,-3984,50,-40,11,32161,28689,32761,-3,-6,0
3671.71,0,57,-29231,242,-545,-4010,51,-32,-8,32162,28689,32762,-4,-1,0
3671.74,0,57,-29215,240,-539,-3992,32,-38,7,32161,28690,32761,-3,-1,0
3671.74,0,57,-29201,240,-548,-4012,39,-24,18,32161,28690,32762,-5,-4,0
3671.77,0,57,-29185,247,-546,-3988,50,-30,-6,32160,28688,32759,-3,-3,0
3671.77,0,57,-29171,245,-547,-3999,47,-39,5,32162,28688,32762,-6,-1,0
3671.8,0,57,-29155,247,-546,-3995,51,-19,13,32161,28686,32761,-3,-5,0
3671.8,0,57,-29140,242,-547,-3986,50,-49,4,32162,28689,32763,-4,-3,0
3671.83,0,57,-29125,250,-543,-4004,33,-24,7,32160,28689,32762,-3,-3,0
3671.83,0,57,-29110,243,-547,-3990,58,-42,13,32162,28688,32761,-5,-9,0
3671.86,0,57,-29094,242,-547,-4004,36,-38,0,32162,28687,32760,-5,-4,0
3671.86,0,57,-29079,246,-546,-4000,41,-39,-5,32161,28689,32762,-3,-1,0
3671.89,0,57,-29064,246,-548,-3989,47,-32,12,32161,28687,32761,-1,-3,0
3671.89,0,57,-29048,241,-545,-3989,35,-52,1,32160,28689,32762,-4,-3,0
3671.92,0,57,-29034,242,-542,-4006,61,-26,3,32160,28687,32758,-6,-7,0
3671.92,0,57,-29018,243,-547,-3984,28,-43,9,32162,28690,32762,-3,-2,0
3671.95,0,57,-29004,244,-538,-4001,29,-44,-4,32161,28691,32765,-1,-1,0
3671.95,0,57,-28988,244,-546,-3996,29,-28,13,32162,28688,32758,-5,-3,0
3671.98,0,57,-28973,244,-548,-3990,38,-42,5,32163,28688,32759,-5,-1,0
3671.98,0,57,-28958,238,-546,-4008,26,-17,7,32162,28688,32762,-3,-5,0
3672.01,0,57,-28943,245,-545,-3981,40,-39,3,32161,28689,32762,-3,-11,0
3672.01,0,57,-28927,244,-550,-4005,53,-55,12,32162,28691,32765,-6,-4,0
3672.04,0,57,-28912,238,-556,-3963,24,-9,-1,32162,28689,32758,-6,-5,0
3672.04,0,57,-28897,247,-534,-3969,26,-30,1,32163,28689,32763,-4,-3,0
3672.07,0,57,-28881,237,-539,-4044,63,-59,5,32161,28688,32761,-6,-5,0
3672.07,0,57,-28867,237,-582,-3970,75,-15,-7,32162,28688,32763,-5,-4,0
3672.1,0,57,-28851,261,-528,-4000,0,-83,2,32162,28688,32761,-2,-6,0
3672.1,0,57,-28837,226,-542,-4013,34,-23,-5,32163,28690,32761,-4,-5,0
3672.13,0,57,-28821,255,-547,-3948,76,-56,-5,32163,28688,32763,-2,-10,0
3672.14,0,57,-28806,231,-556,-4059,46,-55,-1,32162,28688,32762,-5,-6,0
3672.16,0,57,-28791,237,-536,-3961,46,1,3,32162,28686,32758,-1,-7,0
3672.17,0,57,-28775,260,-549,-3984,34,-38,-5,32163,28689,32761,-2,-1,0
3672.19,0,57,-28760,243,-539,-4004,20,-107,-3,32161,28688,32762,-1,-7,0
3672.2,0,57,-28745,226,-545,-3979,41,-19,31,32162,28689,32764,13,-2,0
3672.22,0,57,-28730,254,-545,-4031,37,-17,-3,32161,28689,32764,-4,-1,0
3672.23,0,57,-28714,244,-550,-3985,22,-41,11,32161,28689,32762,-4,-6,0
3672.25,0,57,-28700,248,-529,-3982,38,-39,-7,32162,28690,32761,-1,-5,0
3672.26,0,57,-28684,240,-546,-3994,58,-41,5,32160,28688,32760,-3,-3,0
3672.28,0,57,-28670,247,-546,-4008,40,-16,16,32164,28688,32763,-2,-5,0
3672.29,0,57,-28654,248,-535,-3996,30,-25,-6,32162,28689,32762,-4,-7,0
3672.31,0,57,-28639,250,-547,-3985,43,-68,19,32162,28689,32762,-1,-1,0
3672.32,0,57,-28624,245,-544,-4008,16,-17,-6,32163,28690,32764,-1,-9,0
3672.34,0,57,-28608,240,-539,-3982,26,-55,-11,32161,28687,32763,-2,-3,0
3672.35,0,57,-28593,248,-544,-4022,74,-37,4,32162,28688,32760,-2,-4,0
3672.37,0,57,-28578,256,-551,-3992,30,-45,5,32162,28689,32760,-3,-7,0
3672.38,0,57,-28563,244,-543,-4002,17,-62,-5,32162,28689,32763,-4,-4,0
3672.4,0,57,-28547,243,-538,-3982,25,-26,7,32161,28689,32762,-7,-6,0
3672.43,0,57,-28533,252,-544,-3983,58,-70,-2,32161,28689,32761,-2,-1,0
3672.43,0,57,-28517,244,-546,-4012,37,-61,11,32162,28690,32766,-7,-6,0
3672.44,0,57,-28503,239,-547,-3996,46,-25,5,32161,28688,32762,-3,-4,0
3672.46,0,57,-28487,248,-548,-3998,4,-55,5,32163,28688,32760,-2,-3,0
3672.47,0,57,-28472,248,-542,-3994,24,-29,10,32161,28689,32762,-3,-5,0
3672.49,0,57,-28457,243,-542,-3985,45,-49,15,32163,28689,32759,-1,-4,0
3672.5,0,57,-28441,246,-549,-4006,21,-64,0,32160,28690,32764,-3,-5,0
3672.52,0,57,-28426,242,-544,-4002,37,-30,3,32161,28690,32764,-3,-1,0
3672.53,0,57,-28411,243,-543,-3991,46,-38,4,32163,28689,32760,-1,-3,0
3672.55,0,57,-28396,241,-543,-3996,38,-40,-3,32159,28691,32761,-5,-6,0
3672.56,0,57,-28380,239,-543,-3997,34,-25,-3,32162,28689,32762,-6,-5,0
3672.58,0,57,-28366,246,-546,-3994,30,-23,20,32161,28687,32761,-1,-2,0
3672.59,0,57,-28350,240,-546,-3994,30,-48,13,32161,28688,32763,-2,-1,0
3672.61,0,57,-28336,247,-544,-3987,60,-32,-2,32161,28687,32763,-2,-2,0
3672.62,0,57,-28320,245,-542,-3999,46,-29,5,32162,28692,32764,-3,-5,0
3672.64,0,57,-28305,245,-550,-3997,32,-22,1,32162,28686,32760,-5,-9,0
3672.65,0,57,-28290,242,-545,-4003,39,-57,4,32162,28688,32764,-1,-1,0
3672.67,0,57,-28274,243,-540,-4000,40,-34,6,32162,28686,32762,-3,-5,0
3672.68,0,57,-28259,240,-548,-3990,40,-35,5,32162,28688,32764,-5,-5,0
3672.7,0,57,-28244,243,-544,-3993,30,-45,-4,32162,28688,32761,-6,-6,0
3672.71,0,57,-28229,244,-541,-4002,53,-32,5,32161,28689,32763,-3,-3,0
3672.73,0,57,-28213,244,-550,-3996,44,-22,8,32163,28689,32763,-5,-6,0
3672.74,0,57,-28198,247,-544,-3984,34,-32,-11,32160,28688,32762,-5,-2,0
3672.76,0,57,-28183,242,-543,-4010,43,-31,-6,32162,28688,32764,-1,-9,0
3672.79,0,57,-28168,243,-549,-3979,53,-38,4,32161,28689,32761,-5,-3,0
3672.79,0,57,-28153,240,-556,-3983,36,-52,-12,32161,28687,32763,-1,-3,0
3672.82,0,57,-28137,242,-532,-3992,9,-30,17,32163,28688,32761,-5,-4,0
3672.82,0,57,-28123,256,-530,-4024,57,-42,3,32162,28692,32763,-1,-1,0
3672.85,0,57,-28107,224,-570,-3997,76,-38,5,32161,28684,32764,2,-3,0
3672.85,0,57,-28092,246,-544,-3941,-9,-36,6,32163,28687,32762,-2,-4,0
3672.88,0,57,-28077,261,-525,-4051,13,-31,10,32163,28690,32761,-1,-5,0
3672.88,0,57,-28062,257,-533,-3994,70,-24,0,32163,28688,32763,-5,-1,0
3672.91,0,57,-28047,252,-561,-4014,47,-74,3,32164,28689,32761,-1,-3,0
3672.91,0,57,-28032,235,-547,-4037,24,-20,4,32161,28688,32760,-5,-2,0
3672.94,0,57,-28016,249,-545,-3932,22,6,-4,32161,28690,32762,-3,-2,0
3672.94,0,57,-28002,254,-540,-3986,49,-94,-3,32162,28688,32761,-5,-3,0
3672.97,0,57,-27986,228,-550,-4013,91,-43,-5,32163,28687,32758,-6,-3,0
3672.97,0,57,-27970,243,-553,-4007,37,9,13,32162,28687,32760,-1,-3,0
3673.01,0,57,-27956,255,-546,-3999,4,-24,-8,32162,28687,32758,-2,-4,0
3673.01,0,57,-27940,258,-530,-3969,33,-30,5,32162,28688,32759,-2,-3,0
3673.03,0,57,-27925,245,-542,-3994,66,-48,-2,32161,28690,32766,-4,-5,0
3673.03,0,57,-27910,231,-557,-4024,32,-2,2,32162,28685,32760,-3,-4,0
3673.06,0,57,-27895,251,-537,-4014,29,3,29,32162,28685,32761,-2,-3,0
3673.06,0,57,-27880,254,-542,-3991,66,-42,7,32162,28690,32763,-3,-5,0
3673.12,0,57,-27865,243,-544,-3994,46,-49,4,32161,28686,32761,-1,-3,0
3673.13,0,57,-27849,242,-543,-3994,27,-46,4,32163,28689,32762,-2,-6,0
3673.13,0,57,-27835,246,-538,-3990,37,-43,3,32163,28685,32762,-6,-5,0
3673.13,0,57,-27819,246,-546,-4002,47,-49,14,32164,28689,32764,-2,3,0
3673.15,0,57,-27800,247,-551,-3996,13,-32,0,32161,28689,32758,-4,-5,0
3673.15,0,57,-27789,244,-541,-4006,33,-27,-2,32163,28686,32765,-5,-3,0
3673.18,0,57,-27773,252,-540,-3972,60,-22,5,32161,28687,32758,-3,-6,0
3673.18,0,57,-27758,248,-542,-3991,45,-60,3,32163,28688,32762,-2,-5,0
3673.21,0,57,-27743,234,-541,-4017,36,-54,8,32161,28686,32760,-3,-6,0
3673.21,0,57,-27728,242,-543,-3990,46,-37,2,32162,28690,32765,-2,-4,0
3673.24,0,57,-27713,249,-542,-3999,23,-28,0,32161,28686,32758,-3,-5,0
3673.24,0,57,-27698,248,-541,-3987,50,-43,5,32163,28688,32763,-1,-9,0
3673.27,0,57,-27682,246,-545,-4001,40,-45,2,32160,28687,32761,-5,-5,0
3673.27,0,57,-27667,242,-542,-3996,-1,-29,2,32163,28688,32764,-2,-5,0
3673.3,0,57,-27652,242,-541,-4000,57,-44,5,32163,28687,32762,-2,-2,0
3673.3,0,57,-27636,239,-549,-3990,45,-28,-7,32163,28687,32761,-1,-2,0
3673.33,0,57,-27622,249,-546,-4000,30,-28,-11,32163,28686,32758,-5,-5,0
3673.33,0,57,-27606,248,-544,-3990,53,-35,4,32163,28688,32761,-2,-6,0
3673.36,0,57,-27591,245,-545,-3986,69,-38,-7,32163,28687,32761,-5,-5,0
3673.36,0,57,-27576,255,-547,-4008,25,-40,2,32163,28689,32763,-5,-3,0
3673.39,0,57,-27560,252,-546,-3994,32,-20,10,32161,28689,32761,-1,-6,0
3673.39,0,57,-27546,251,-544,-3990,26,-29,4,32163,28687,32761,-6,-6,0
3673.42,0,57,-27531,250,-552,-4002,2,-52,12,32162,28688,32763,13,-5,0
3673.43,0,57,-27515,252,-546,-3990,43,-35,2,32162,28689,32764,-3,-3,0
3673.45,0,57,-27500,248,-548,-3996,41,-59,-3,32162,28689,32762,2,-1,0
3673.46,0,57,-27485,248,-545,-3996,42,-23,7,32162,28687,32761,-2,-2,0
3673.48,0,57,-27469,255,-543,-3987,55,-52,-13,32163,28686,32762,-1,-4,0
3673.49,0,57,-27455,237,-540,-4005,41,-30,6,32161,28686,32761,-2,-5,0
3673.51,0,57,-27439,250,-560,-3968,32,-14,11,32163,28685,32761,-1,-8,0
3673.52,0,57,-27424,242,-538,-3965,30,-68,17,32162,28687,32764,-3,-2,0
3673.54,0,57,-27409,250,-527,-4050,46,-54,-11,32162,28688,32761,-3,-1,0
3673.55,0,57,-27394,236,-553,-4012,80,-25,8,32161,28688,32763,-3,-2,0
3673.58,0,57,-27379,256,-552,-3967,-3,-40,5,32161,28689,32761,-5,-5,0
3673.58,0,57,-27364,247,-528,-3998,12,-50,26,32163,28688,32762,-2,-5,0
3673.6,0,57,-27348,249,-525,-3974,79,-45,10,32163,28688,32758,-2,-5,0
3673.61,0,57,-27333,250,-548,-4042,35,-67,15,32163,28686,32761,-2,-7,0
3673.63,0,57,-27318,237,-557,-4036,27,-23,5,32162,28689,32761,-5,-1,0
3673.64,0,57,-27302,259,-536,-3938,21,-9,11,32163,28687,32762,-3,-1,0
3673.66,0,57,-27288,248,-539,-3986,51,-76,8,32164,28688,32761,11,-6,0
3673.67,0,57,-27272,231,-547,-4004,77,-55,3,32162,28686,32761,-5,-4,0
3673.69,0,57,-27257,244,-550,-4011,66,14,6,32161,28689,32761,-1,-6,0
3673.7,0,57,-27242,246,-546,-3994,35,-22,-1,32162,28687,32761,-14,-5,0
3673.72,0,57,-27227,246,-538,-3971,18,-69,6,32163,28691,32766,-3,-2,0
3673.73,0,57,-27212,247,-538,-3985,43,-71,-4,32163,28685,32758,-5,-7,0
3673.75,0,57,-27197,238,-545,-4018,74,-9,6,32163,28689,32763,-6,-2,0
3673.76,0,57,-27181,253,-547,-4011,21,-16,6,32161,28688,32764,-1,-5,0
3673.78,0,57,-27166,248,-545,-3984,47,-71,27,32161,28688,32762,-5,-5,0
3673.81,0,57,-27151,239,-543,-3985,54,-50,4,32161,28688,32764,-3,-6,0
3673.81,0,57,-27135,247,-540,-3987,29,-11,14,32162,28686,32762,-6,-3,0
3673.82,0,57,-27121,242,-543,-4016,55,-10,-3,32163,28689,32762,-5,-1,0
3673.84,0,57,-27105,249,-546,-3996,54,-44,0,32162,28686,32759,-1,-3,0
3673.85,0,57,-27090,250,-556,-4016,1,-35,0,32161,28689,32760,-7,-1,0
3673.87,0,57,-27075,243,-542,-3981,5,-35,1,32162,28687,32761,-4,-5,0
3673.9,0,57,-27060,252,-538,-3995,49,-32,8,32160,28687,32763,-2,-1,0
3673.9,0,57,-27045,249,-553,-3994,66,-69,-15,32161,28687,32762,-1,-3,0
3673.91,0,57,-27029,242,-548,-3999,40,-55,6,32163,28690,32764,-6,-3,0
3673.93,0,57,-27014,252,-545,-4007,-4,-25,5,32162,28686,32760,-5,-5,0
3673.94,0,57,-26999,248,-545,-3986,38,-23,0,32163,28687,32761,-1,-4,0
3673.96,0,57,-26984,246,-546,-3988,44,-61,5,32162,28686,32763,-7,-2,0
3673.97,0,57,-26968,245,-547,-4002,51,-51,2,32163,28687,32762,-6,-4,0
3673.99,0,57,-26954,245,-546,-4014,43,-4,3,32161,28689,32761,-1,-2,0
3674,0,57,-26938,249,-541,-3990,49,-45,9,32162,28688,32762,-4,-1,0
3674.02,0,57,-26923,247,-548,-3987,52,-44,-3,32161,28689,32765,-14,-6,0
3674.05,0,57,-26908,243,-545,-3990,23,-13,-10,32162,28683,32758,-2,-2,0
3674.05,0,57,-26893,243,-541,-3983,56,-69,-5,32162,28690,32763,-1,-1,0
3674.08,0,57,-26878,242,-542,-4016,50,-58,7,32162,28688,32765,-4,-6,0
3674.08,0,57,-26862,246,-548,-3987,58,-40,-3,32160,28688,32764,-4,-8,0
3674.11,0,57,-26847,242,-549,-3997,33,-20,9,32162,28689,32761,-2,-3,0
3674.11,0,57,-26832,246,-535,-3988,28,-37,0,32162,28689,32763,-3,-1,0
3674.14,0,57,-26817,247,-547,-3988,46,-72,2,32162,28687,32760,-4,-5,0
3674.14,0,57,-26801,246,-550,-4008,49,-38,5,32160,28687,32763,-4,-3,0
3674.17,0,57,-26787,250,-545,-3995,31,-26,2,32162,28688,32759,-2,-5,0
3674.17,0,57,-26771,247,-546,-3989,21,-26,-8,32160,28689,32759,-3,-6,0
3674.2,0,57,-26756,243,-544,-3992,39,-38,-5,32161,28687,32759,-3,-3,0
3674.2,0,57,-26741,246,-546,-4004,64,-47,11,32162,28688,32761,-1,-1,0
3674.23,0,57,-26726,242,-545,-3997,35,-29,1,32160,28690,32765,-5,-7,0
3674.23,0,57,-26711,246,-542,-3989,38,-40,4,32160,28687,32761,-5,-8,0
3674.26,0,57,-26695,241,-541,-3983,50,-64,-5,32161,28687,32760,-2,-4,0
3674.26,0,57,-26680,242,-542,-3997,46,-26,19,32159,28689,32764,-2,-7,0
3674.29,0,57,-26665,247,-543,-4008,37,-23,-3,32161,28687,32759,-1,-6,0
3674.29,0,57,-26650,250,-541,-3984,25,-57,7,32161,28690,32764,-1,-6,0
3674.32,0,57,-26634,244,-543,-4010,51,-46,8,32160,28685,32759,-1,-5,0
3674.32,0,57,-26620,246,-547,-3990,30,-27,-3,32161,28687,32763,-2,-5,0
3674.36,0,57,-26604,246,-545,-3991,41,-32,-9,32161,28687,32762,-5,-2,0
3674.36,0,57,-26589,243,-550,-4010,68,-49,17,32164,28686,32761,-1,-1,0
3674.38,0,57,-26574,249,-540,-3977,29,-53,23,32162,28688,32763,-5,-7,0
3674.38,0,57,-26558,245,-549,-4029,50,-45,4,32161,28690,32762,-4,-4,0
3674.41,0,57,-26544,241,-549,-3972,33,-38,-1,32163,28688,32761,-2,-1,0
3674.41,0,57,-26528,249,-542,-3989,17,-42,0,32161,28691,32765,-3,-7,0
3674.44,0,57,-26513,242,-549,-4010,49,-19,12,32161,28687,32761,-1,-1,0
3674.44,0,57,-26498,246,-546,-3972,23,-20,-9,32161,28691,32767,-2,-5,0
3674.47,0,57,-26483,248,-542,-4030,38,-54,-2,32160,28688,32764,-3,-2,0
3674.47,0,57,-26467,234,-556,-3979,35,-19,17,32161,28687,32763,-1,-2,0
3674.5,0,57,-26453,253,-545,-3967,32,-56,0,32160,28687,32762,-9,-3,0
3674.5,0,57,-26437,238,-534,-4022,13,-65,-12,32161,28687,32761,-2,-3,0
3674.53,0,57,-26422,241,-542,-3970,50,-28,5,32161,28689,32761,-3,-3,0
3674.53,0,57,-26407,259,-546,-4040,52,-46,14,32161,28688,32764,-3,-3,0
3674.56,0,57,-26391,232,-554,-4020,34,-49,10,32162,28687,32760,-3,-2,0
3674.56,0,57,-26377,242,-549,-3939,21,-30,7,32162,28688,32764,-3,-1,0
3674.59,0,57,-26361,239,-541,-3996,52,-67,-9,32161,28687,32765,-6,-3,0
3674.59,0,57,-26346,236,-541,-3990,43,-12,27,32162,28689,32764,-5,-5,0
3674.62,0,57,-26331,255,-549,-4015,50,-32,1,32162,28690,32762,-2,-3,0
3674.62,0,57,-26316,245,-558,-4025,6,-43,6,32162,28689,32760,9,-2,0
3674.65,0,57,-26300,251,-534,-3955,10,-29,-1,32161,28691,32765,-1,-3,0
3674.66,0,57,-26286,249,-529,-3984,60,-70,-7,32162,28689,32762,-1,-5,0
3674.68,0,57,-26270,238,-550,-4000,77,-53,9,32161,28688,32761,-1,-5,0
3674.69,0,57,-26255,242,-554,-4022,23,-30,-1,32162,28689,32762,-2,-6,0
3674.71,0,57,-26240,246,-545,-4000,22,-48,3,32162,28687,32761,-2,-5,0
3674.72,0,57,-26224,252,-544,-3968,43,-13,-7,32162,28691,32763,-6,2,0
3674.74,0,57,-26210,250,-539,-3985,36,-73,-8,32162,28687,32763,-5,-2,0
3674.75,0,57,-26194,236,-544,-4002,48,-32,-6,32162,28688,32764,-1,-3,0
3674.77,0,57,-26179,244,-546,-4014,32,-46,16,32160,28688,32764,-5,-6,0
3674.78,0,57,-26164,246,-546,-3998,29,-59,3,32161,28689,32765,-4,-4,0
3674.8,0,57,-26149,249,-541,-3987,23,-24,-2,32162,28688,32761,-1,-6,0
3674.81,0,57,-26133,248,-548,-3992,43,-46,12,32164,28688,32763,-4,-7,0
3674.83,0,57,-26119,247,-545,-3992,26,-27,16,32160,28688,32761,-3,-3,0
3674.84,0,57,-26103,246,-542,-4002,34,-41,31,32161,28690,32764,-5,-6,0
3674.86,0,57,-26088,244,-543,-4005,30,-47,2,32162,28687,32763,-1,-9,0
3674.87,0,57,-26073,241,-546,-3989,20,-23,-11,32161,28686,32761,-2,-3,0
3674.89,0,57,-26057,245,-544,-3994,28,-39,4,32162,28688,32763,-5,-3,0
3674.9,0,57,-26043,246,-537,-3996,31,-44,-2,32163,28688,32764,-2,-6,0
3674.92,0,57,-26027,236,-546,-4002,44,-41,-8,32162,28690,32762,-3,-5,0
3674.93,0,57,-26012,243,-538,-3992,21,-41,1,32162,28688,32762,-2,-5,0
3674.95,0,57,-25997,237,-545,-4009,26,-15,-3,32161,28691,32763,-7,-6,0
3674.96,0,57,-25982,245,-547,-3990,31,-40,9,32161,28689,32762,-4,-5,0
3674.98,0,57,-25966,251,-540,-3989,35,-45,-4,32161,28686,32763,-3,-5,0
3674.99,0,57,-25952,243,-545,-4012,43,-42,-1,32161,28688,32762,-3,-6,0
3675.01,0,57,-25936,246,-547,-3982,49,-35,-4,32162,28688,32764,-1,-1,0
3675.02,0,57,-25921,239,-546,-3999,43,-52,-5,32159,28688,32762,-3,-6,0
3675.04,0,57,-25906,247,-539,-4002,40,-48,6,32161,28688,32760,-2,0,0
3675.05,0,57,-25890,249,-539,-3983,41,-37,1,32161,28688,32763,-3,-5,0
3675.07,0,57,-25876,242,-542,-4005,26,-42,16,32161,28688,32759,-3,-2,0
3675.08,0,57,-25860,241,-543,-3987,43,-45,-8,32161,28691,32762,-2,-4,0
3675.1,0,57,-25845,242,-546,-3999,47,-35,9,32160,28689,32764,-3,-3,0
3675.11,0,57,-25830,242,-539,-3988,52,-48,9,32161,28689,32764,-2,-5,0
3675.13,0,57,-25815,239,-542,-3993,23,-28,-7,32162,28686,32760,-4,-2,0
3675.14,0,57,-25799,245,-546,-4002,39,-36,7,32162,28691,32761,-5,-1,0
3675.16,0,57,-25785,248,-546,-4002,38,-43,-5,32161,28688,32763,2,-4,0
3675.17,0,57,-25769,246,-542,-3992,5,-32,7,32160,28687,32761,-2,-5,0
3675.19,0,57,-25754,242,-547,-3991,60,-45,5,32162,28686,32763,-3,-1,0
3675.2,0,57,-25739,249,-542,-4003,37,-15,-2,32161,28690,32761,-5,-1,0
3675.22,0,57,-25723,241,-548,-4013,51,-22,6,32160,28691,32763,-1,-2,0
3675.23,0,57,-25709,247,-550,-3978,28,-28,-2,32161,28685,32760,-1,-1,0
3675.25,0,57,-25693,250,-534,-3990,14,-48,14,32162,28689,32763,-2,-1,0
3675.28,0,57,-25678,237,-542,-3994,57,-22,13,32160,28691,32761,-1,1,0
3675.28,0,57,-25663,249,-545,-3993,67,-32,11,32161,28689,32763,-2,-1,0
3675.31,0,57,-25647,243,-552,-4014,32,-29,0,32160,28689,32762,-1,-2,0
3675.31,0,57,-25632,247,-534,-3988,29,-16,2,32160,28687,32761,-4,-2,0
3675.34,0,57,-25618,249,-542,-3986,49,-46,7,32161,28687,32762,2,-1,0
3675.34,0,57,-25602,243,-545,-3998,47,-38,-3,32161,28688,32764,-1,-7,0
3675.37,0,57,-25587,242,-546,-4005,45,-26,-9,32161,28685,32760,-5,-5,0
3675.37,0,57,-25572,243,-546,-4008,59,-54,5,32161,28687,32760,-3,-7,0
3675.41,0,57,-25556,238,-543,-3984,22,-29,-4,32161,28687,32761,-3,-1,0
3675.41,0,57,-25542,244,-536,-3986,56,-44,-1,32161,28689,32764,-4,-4,0
3675.43,0,57,-25526,244,-548,-3995,47,-28,-5,32162,28692,32766,-6,-2,0
3675.43,0,57,-25511,244,-545,-3996,38,-31,6,32161,28687,32762,-3,-3,0
3675.46,0,57,-25496,238,-541,-4004,43,-44,0,32161,28686,32758,-2,-6,0
3675.46,0,57,-25481,245,-543,-3990,50,-36,9,32160,28689,32763,-3,-6,0
3675.49,0,57,-25465,245,-555,-3992,32,-56,5,32160,28687,32760,-3,-3,0
3675.49,0,57,-25451,246,-537,-3992,28,-24,3,32161,28688,32761,-1,-1,0
3675.52,0,57,-25435,248,-545,-3996,39,-36,-5,32160,28685,32760,-3,-5,0
3675.52,0,57,-25420,246,-545,-4006,23,-19,-1,32162,28689,32762,-1,-6,0
3675.55,0,57,-25405,246,-538,-4002,15,-40,-10,32162,28688,32761,-5,-5,0
3675.55,0,57,-25389,256,-546,-4004,32,-50,6,32162,28686,32761,-2,-2,0
3675.58,0,57,-25375,243,-543,-3991,32,-36,3,32162,28687,32760,-4,-1,0
3675.58,0,57,-25359,248,-546,-3995,46,-54,17,32161,28688,32763,-4,-5,0
3675.61,0,57,-25344,246,-542,-4009,56,-39,6,32161,28686,32757,-7,-5,0
3675.61,0,57,-25329,250,-543,-3985,41,-41,17,32161,28689,32762,-2,2,0
3675.64,0,57,-25314,247,-547,-4009,34,-23,12,32163,28688,32759,-2,-6,0
3675.64,0,57,-25298,251,-549,-3987,34,-32,5,32162,28687,32761,-3,-4,0
3675.67,0,57,-25283,246,-544,-4001,33,-30,9,32160,28687,32760,-3,-3,0
3675.67,0,57,-25268,250,-551,-4008,27,-34,9,32162,28687,32761,-5,-8,0
3675.7,0,57,-25253,250,-549,-3990,25,-41,8,32163,28686,32761,-3,-1,0
3675.7,0,57,-25238,244,-545,-4002,36,-38,3,32161,28688,32764,-1,-1,0
3675.73,0,57,-25222,244,-541,-3988,64,-31,16,32162,28688,32761,-2,-5,0
3675.73,0,57,-25208,244,-549,-3994,39,-49,9,32161,28689,32760,-6,-2,0
3675.76,0,57,-25192,240,-544,-3995,37,-37,2,32162,28687,32761,-2,-3,0
3675.76,0,57,-25177,241,-547,-3995,38,-53,8,32163,28689,32762,-1,-8,0
3675.79,0,57,-25162,247,-539,-3991,36,-48,4,32162,28689,32763,-1,-5,0
3675.79,0,57,-25147,243,-542,-4007,56,-34,8,32160,28689,32763,-4,-2,0
3675.82,0,57,-25131,242,-546,-3988,65,-44,-2,32161,28690,32764,-4,-2,0
3675.82,0,57,-25116,245,-545,-3994,40,-43,1,32162,28692,32765,-3,-3,0
3675.85,0,57,-25101,243,-544,-4009,48,-34,11,32161,28689,32762,-3,-6,0
3675.85,0,57,-25086,247,-545,-3982,62,-42,2,32163,28689,32761,-5,-5,0
3675.88,0,57,-25071,246,-550,-4009,36,-51,13,32163,28687,32761,-2,-1,0
3675.89,0,57,-25055,243,-538,-3986,50,-30,5,32163,28687,32764,-2,-3,0
3675.91,0,57,-25041,252,-542,-3994,51,-49,10,32162,28686,32761,-3,-5,0
3675.92,0,57,-25025,238,-548,-4006,46,-43,9,32162,28692,32762,-2,-2,0
3675.94,0,57,-25010,246,-545,-3982,36,-43,-2,32161,28688,32761,-4,-2,0
3675.95,0,57,-24995,250,-548,-4007,41,-59,-5,32161,28689,32762,-2,-4,0
3675.97,0,57,-24979,248,-546,-3986,45,-23,4,32160,28689,32764,-5,-1,0
3675.98,0,57,-24964,251,-541,-3996,39,-25,21,32162,28688,32761,-2,-3,0
3676,0,57,-24949,241,-547,-3999,34,-57,15,32162,28687,32762,-6,-2,0
3676.01,0,57,-24934,246,-542,-3978,40,-33,13,32163,28689,32762,-4,-8,0
3676.03,0,57,-24919,246,-547,-4011,54,-59,-11,32162,28687,32761,-1,-2,0
3676.04,0,57,-24904,243,-549,-3990,41,-38,15,32159,28689,32764,-2,-5,0
3676.06,0,57,-24888,246,-543,-3993,36,-41,-3,32164,28687,32759,-4,-5,0
3676.07,0,57,-24874,244,-542,-3996,31,-37,-8,32162,28687,32762,-4,-1,0
3676.09,0,57,-24858,243,-547,-3988,40,-20,-9,32162,28688,32762,-1,-8,0
3676.1,0,57,-24843,252,-545,-4010,33,-38,15,32161,28688,32761,-2,-6,0
3676.12,0,57,-24828,244,-543,-3988,31,-23,10,32162,28688,32764,-5,-1,0
3676.13,0,57,-24812,253,-549,-3993,44,-57,8,32162,28686,32763,-2,-7,0
3676.15,0,57,-24797,246,-544,-3999,27,-33,13,32161,28690,32763,-1,-5,0
3676.16,0,57,-24782,250,-545,-3991,53,-38,6,32163,28688,32761,-5,-3,0
3676.18,0,57,-24767,241,-542,-4003,39,-38,-12,32160,28686,32761,-4,-2,0
3676.19,0,57,-24752,246,-545,-4004,31,-13,10,32162,28688,32761,-5,-5,0
3676.21,0,57,-24737,252,-551,-3991,28,-26,10,32163,28687,32761,-4,-1,0
3676.22,0,57,-24721,246,-549,-3980,53,-49,-9,32161,28690,32762,-4,-4,0
3676.24,0,57,-24707,250,-542,-4000,38,-31,1,32162,28688,32760,-5,-2,0
3676.25,0,57,-24691,246,-545,-3991,43,-44,-10,32163,28687,32761,-2,-5,0
3676.27,0,57,-24675,240,-542,-4008,27,-38,-6,32161,28686,32761,-5,-4,0
3676.28,0,57,-24661,251,-548,-3991,36,-16,21,32162,28687,32763,-1,-6,0
3676.3,0,57,-24645,246,-549,-3982,30,-42,-1,32161,28690,32763,-2,-2,0
3676.31,0,57,-24630,247,-547,-3997,53,-58,5,32161,28687,32761,-2,-5,0
3676.33,0,57,-24615,249,-542,-3995,54,-68,0,32163,28689,32762,-1,-2,0
3676.34,0,57,-24600,245,-549,-4007,57,-47,0,32161,28688,32763,-7,-4,0
3676.36,0,57,-24585,249,-551,-3991,18,-34,3,32162,28686,32763,-3,-3,0
3676.37,0,57,-24570,246,-546,-3987,32,-35,-12,32163,28686,32761,-4,-9,0
3676.39,0,57,-24554,244,-546,-3992,44,-46,7,32162,28686,32762,-4,-9,0
3676.4,0,57,-24540,248,-547,-4004,29,-36,20,32162,28686,32761,-3,-6,0
3676.42,0,57,-24524,250,-542,-4005,40,-22,-8,32163,28688,32764,-3,-2,0
3676.43,0,57,-24508,249,-546,-3994,48,-46,15,32163,28689,32762,-5,0,0
3676.45,0,57,-24494,246,-546,-3991,40,-47,9,32162,28689,32763,-3,-4,0
3676.46,0,57,-24478,248,-542,-3988,25,-26,15,32163,28689,32762,-1,-2,0
3676.48,0,57,-24463,246,-545,-3988,63,-49,-2,32163,28689,32762,-5,-9,0
3676.49,0,57,-24448,246,-552,-4009,46,-63,6,32161,28687,32761,-3,-3,0
3676.51,0,57,-24433,245,-544,-4006,34,-22,-5,32161,28688,32761,-1,-5,0
3676.54,0,57,-24418,250,-547,-3998,30,-42,-4,32163,28689,32762,-1,-5,0
3676.54,0,57,-24403,250,-551,-3980,28,-43,9,32163,28689,32761,-3,-6,0
3676.57,0,57,-24387,244,-538,-3987,28,-48,-11,32163,28687,32759,-3,-5,0
3676.57,0,57,-24373,247,-544,-4028,64,-39,6,32162,28688,32760,-3,-5,0
3676.6,0,57,-24357,244,-546,-3990,40,-20,6,32163,28689,32761,-5,-7,0
3676.6,0,57,-24341,250,-551,-4000,46,-62,-4,32161,28687,32764,-1,-6,0
3676.63,0,57,-24327,244,-544,-3985,20,-39,1,32162,28691,32764,-6,-6,0
3676.63,0,57,-24311,247,-543,-3996,50,-41,3,32161,28689,32762,-4,-6,0
3676.66,0,57,-24297,238,-543,-4016,48,-51,16,32162,28691,32761,-3,-4,0
3676.66,0,57,-24281,242,-551,-3983,41,-36,2,32162,28690,32764,0,-5,0
3676.69,0,57,-24266,245,-545,-4007,55,-71,-2,32162,28688,32761,-2,-4,0
3676.69,0,57,-24251,247,-541,-3984,-2,-25,13,32161,28690,32762,0,-1,0
3676.72,0,57,-24236,246,-540,-4000,37,-49,11,32160,28687,32761,-6,-3,0
3676.72,0,57,-24220,243,-552,-4014,35,-34,7,32162,28690,32766,-2,-5,0
3676.75,0,57,-24206,243,-540,-3984,33,-37,12,32162,28687,32759,-1,-4,0
3676.75,0,57,-24190,242,-545,-4010,41,-51,-9,32161,28688,32763,-3,-2,0
3676.78,0,57,-24174,241,-549,-3989,26,-27,21,32160,28687,32758,-5,-2,0
3676.78,0,57,-24160,242,-546,-3994,45,-48,3,32162,28688,32761,-4,-5,0
3676.81,0,57,-24144,238,-542,-4006,47,-55,5,32161,28689,32760,-4,-5,0
3676.81,0,57,-24130,239,-551,-3984,51,-19,-13,32161,28690,32764,-5,-5,0
3676.84,0,57,-24114,242,-547,-3997,39,-51,-1,32160,28690,32762,-3,-1,0
3676.84,0,57,-24099,239,-539,-3994,43,-33,9,32161,28689,32764,-3,-1,0
3676.87,0,57,-24084,249,-548,-3996,58,-41,16,32162,28688,32760,-1,-7,0
3676.87,0,57,-24069,246,-551,-3996,9,-58,-15,32163,28690,32761,-1,-3,0
3676.9,0,57,-24053,239,-544,-3988,24,-36,0,32162,28688,32761,-3,-2,0
3676.9,0,57,-24039,245,-547,-3998,56,-21,1,32163,28688,32762,-3,-3,0
3676.93,0,57,-24023,243,-544,-3984,35,-52,-2,32161,28690,32763,-4,-3,0
3676.93,0,57,-24007,240,-538,-4009,23,-43,7,32162,28689,32761,-5,-2,0
3676.96,0,57,-23993,244,-551,-3979,49,-33,1,32162,28687,32761,-2,-7,0
3676.96,0,57,-23977,242,-547,-3994,30,-29,11,32161,28688,32764,-1,-2,0
3676.99,0,57,-23963,236,-540,-4001,63,-35,13,32162,28690,32764,-3,-5,0
3676.99,0,57,-23947,246,-549,-3974,57,-25,14,32162,28690,32765,-4,-3,0
3677.02,0,57,-23932,242,-547,-4027,34,-63,9,32161,28688,32760,-3,-6,0
3677.02,0,57,-23917,240,-537,-3980,29,-41,13,32161,28692,32765,-1,-3,0
3677.05,0,57,-23902,247,-544,-3989,43,-24,8,32161,28687,32761,-4,-5,0
3677.05,0,57,-23886,243,-547,-4010,30,-38,-11,32161,28685,32764,-1,-3,0
3677.09,0,57,-23871,244,-541,-3975,28,-13,24,32161,28689,32762,-1,-3,0
3677.09,0,57,-23856,251,-546,-4020,48,-54,2,32159,28688,32761,-5,2,0
3677.11,0,57,-23840,242,-554,-3996,25,-18,16,32162,28689,32762,-4,-8,0
3677.11,0,57,-23826,248,-546,-3997,2,-39,-16,32160,28693,32766,-3,-3,0
3677.14,0,57,-23810,244,-547,-3995,55,-35,4,32162,28690,32764,-6,-5,0
3677.15,0,57,-23796,246,-550,-3976,28,-26,1,32161,28691,32764,-1,-2,0
3677.17,0,57,-23780,246,-546,-4006,39,-59,12,32160,28690,32761,-5,-5,0
3677.18,0,57,-23765,245,-549,-4001,51,-35,12,32160,28687,32763,-2,-5,0
3677.2,0,57,-23750,250,-544,-3993,28,-43,5,32161,28688,32761,-2,-2,0
3677.21,0,57,-23735,243,-552,-3984,35,-36,5,32162,28690,32761,-2,-6,0
3677.23,0,57,-23719,248,-534,-3998,38,-43,8,32162,28689,32760,-1,-2,0
3677.24,0,57,-23704,240,-554,-4002,71,-35,-6,32163,28689,32762,-2,-6,0
3677.26,0,57,-23689,254,-530,-3980,42,-56,13,32163,28690,32762,-2,-5,0
3677.27,0,57,-23673,232,-549,-4018,29,-21,19,32159,28689,32759,-3,-3,0
3677.29,0,57,-23659,247,-539,-3977,58,-31,1,32162,28688,32763,-1,-5,0
3677.3,0,57,-23643,244,-553,-4024,33,-61,13,32163,28690,32763,-1,-1,0
3677.32,0,57,-23629,244,-551,-3983,37,-14,0,32160,28689,32762,-1,-4,0
3677.33,0,57,-23613,247,-545,-3985,46,-56,4,32162,28691,32762,-1,-7,0
3677.35,0,57,-23598,242,-537,-4012,9,-47,7,32161,28691,32763,-5,2,0
3677.36,0,57,-23583,238,-545,-3977,51,-21,-4,32161,28689,32764,-2,-5,0
3677.38,0,57,-23568,250,-552,-4025,52,-63,7,32161,28689,32759,-1,-6,0
3677.39,0,57,-23552,239,-546,-3979,24,-35,6,32160,28689,32762,-2,-4,0
3677.41,0,57,-23537,242,-538,-3979,37,-41,2,32163,28689,32761,-1,-4,0
3677.42,0,57,-23522,240,-549,-4013,32,-49,-9,32161,28688,32759,-1,-3,0
3677.44,0,57,-23506,245,-543,-3991,20,-11,-7,32161,28690,32761,-1,-4,0
3677.45,0,57,-23492,242,-545,-4011,52,-42,0,32161,28690,32761,-2,-7,0
3677.47,0,57,-23476,247,-544,-3975,28,-41,2,32159,28690,32761,-4,-1,0
3677.48,0,57,-23462,244,-540,-4002,39,-66,-2,32160,28691,32762,-5,-3,0
3677.5,0,57,-23446,234,-543,-3997,26,-29,-2,32161,28688,32761,-7,-4,0
3677.51,0,57,-23431,240,-548,-3992,44,-29,9,32163,28688,32764,-5,-2,0
3677.53,0,57,-23416,244,-544,-4011,33,-33,3,32161,28690,32763,-4,-3,0
3677.54,0,57,-23401,244,-547,-3969,47,-34,7,32162,28689,32762,-4,-6,0
3677.56,0,57,-23385,247,-548,-4004,53,-53,6,32163,28687,32762,-7,-5,0
3677.57,0,57,-23370,241,-548,-4006,22,-29,6,32163,28688,32760,-3,-5,0
3677.59,0,57,-23355,247,-549,-3983,36,-34,5,32162,28689,32760,-5,2,0
3677.6,0,57,-23339,250,-549,-4010,40,-48,8,32162,28689,32760,-4,-3,0
3677.62,0,57,-23325,239,-546,-3984,27,-5,-9,32162,28688,32763,-2,-5,0
3677.63,0,57,-23309,247,-543,-3990,57,-27,0,32163,28690,32763,-2,-1,0
3677.65,0,57,-23295,243,-546,-4004,33,-48,9,32161,28691,32763,-3,-3,0
3677.66,0,57,-23279,244,-551,-3989,41,-32,11,32161,28691,32760,-5,-3,0
3677.68,0,57,-23264,241,-545,-3992,39,-34,6,32163,28692,32763,-3,-5,0
3677.69,0,57,-23249,240,-549,-4003,46,-42,17,32160,28689,32761,-1,-10,0
3677.71,0,57,-23233,249,-541,-3982,47,-45,-1,32161,28688,32761,-3,-7,0
3677.72,0,57,-23218,248,-546,-4005,32,-53,-4,32162,28690,32763,-4,-1,0
3677.74,0,57,-23203,244,-546,-4004,28,-19,-8,32162,28690,32763,-4,-3,0
3677.77,0,57,-23188,253,-549,-3989,30,-53,-9,32162,28689,32762,-6,-4,0
3677.77,0,57,-23172,245,-551,-4009,54,-33,-5,32162,28690,32761,-2,-5,0
3677.8,0,57,-23158,241,-546,-3970,18,-22,-5,32162,28688,32764,-5,-1,0
3677.8,0,57,-23142,240,-542,-4001,38,-48,12,32162,28689,32763,-4,-5,0
3677.83,0,57,-23128,248,-546,-3998,40,-19,17,32161,28691,32765,-6,-2,0
3677.83,0,57,-23112,247,-549,-3988,46,-52,9,32162,28688,32762,-2,-7,0
3677.86,0,57,-23097,241,-544,-4008,28,-24,2,32160,28691,32764,-4,-5,0
3677.86,0,57,-23082,247,-548,-3981,41,-34,16,32162,28691,32764,-2,-6,0
3677.89,0,57,-23066,240,-554,-3994,34,-47,6,32160,28691,32764,1,-3,0
3677.89,0,57,-23051,236,-551,-3976,43,-30,3,32162,28688,32761,-4,-3,0
3677.92,0,57,-23036,254,-530,-4003,33,-37,3,32162,28687,32759,-1,-1,0
3677.92,0,57,-23021,249,-547,-4024,59,-33,14,32161,28689,32764,-1,-1,0
3677.95,0,57,-23005,229,-570,-3947,43,-22,-16,32161,28687,32757,-3,-11,0
3677.95,0,57,-22991,250,-531,-3998,-2,-33,11,32161,28688,32761,-1,-2,0
3677.98,0,57,-22975,235,-538,-4017,45,-36,-1,32162,28686,32760,-1,-1,0
3677.98,0,57,-22961,254,-547,-3982,76,-33,5,32162,28691,32764,-5,-3,0
3678.02,0,57,-22945,242,-553,-4047,4,-56,5,32160,28689,32760,-4,-5,0
3678.02,0,57,-22930,243,-542,-3975,30,-3,8,32160,28690,32763,-1,-1,0
3678.04,0,57,-22915,256,-536,-3982,27,-38,8,32160,28690,32762,-2,-5,0
3678.04,0,57,-22899,237,-546,-4003,38,-57,12,32161,28689,32761,-3,-1,0
3678.07,0,57,-22884,238,-550,-3988,75,-27,-2,32162,28686,32763,-5,-3,0
3678.07,0,57,-22869,256,-555,-4022,22,-15,8,32161,28688,32762,-5,-1,0
3678.1,0,57,-22854,244,-540,-3976,13,-57,-6,32160,28686,32759,-2,-4,0
3678.1,0,57,-22838,251,-542,-3994,34,-59,12,32162,28689,32761,-5,-2,0
3678.13,0,57,-22824,233,-552,-4010,52,-28,-12,32161,28689,32761,-1,-4,0
3678.13,0,57,-22808,238,-549,-3998,29,-7,8,32163,28685,32761,-2,-3,0
3678.16,0,57,-22794,250,-540,-3997,54,-49,-2,32160,28688,32758,-5,-4,0
3678.16,0,57,-22778,239,-547,-4000,46,-36,10,32162,28690,32761,-3,-4,0
3678.19,0,57,-22762,245,-549,-3996,28,-23,-11,32161,28689,32761,-3,-1,0
3678.19,0,57,-22748,244,-540,-3984,38,-53,-11,32161,28689,32762,-1,-2,0
3678.22,0,57,-22732,243,-547,-4012,67,-50,6,32160,28687,32761,-5,-5,0
3678.22,0,57,-22717,246,-550,-3985,30,-29,9,32162,28686,32763,-4,-3,0
3678.26,0,57,-22702,235,-548,-4008,22,-37,11,32162,28689,32761,-4,-4,0
3678.26,0,57,-22687,252,-532,-3996,51,-31,-8,32161,28688,32761,-1,-5,0
3678.28,0,57,-22672,253,-551,-3992,53,-48,13,32161,28688,32760,-7,-9,0
3678.28,0,57,-22657,242,-545,-4004,40,-51,6,32160,28688,32762,-2,-4,0
3678.31,0,57,-22641,246,-542,-3995,29,-30,-4,32162,28689,32760,-1,-4,0
3678.31,0,57,-22626,240,-540,-4004,40,-50,5,32160,28690,32765,-2,-2,0
3678.34,0,57,-22611,242,-551,-3984,24,-54,-2,32162,28686,32759,-3,-1,0
3678.34,0,57,-22595,245,-544,-4001,54,-37,-17,32162,28689,32761,-2,-5,0
3678.37,0,57,-22581,239,-548,-3981,49,-40,15,32160,28690,32764,-1,-4,0
3678.38,0,57,-22565,246,-542,-3995,39,-62,4,32161,28688,32766,-3,-3,0
3678.4,0,57,-22550,242,-552,-3994,43,-55,-3,32161,28687,32764,-3,-1,0
3678.41,0,57,-22535,243,-545,-3996,20,-37,2,32160,28687,32761,-6,-5,0
3678.43,0,57,-22520,246,-541,-4004,48,-48,-2,32161,28688,32762,-2,-1,0
3678.44,0,57,-22505,253,-542,-4001,75,-58,5,32162,28689,32761,-4,-3,0
3678.46,0,57,-22490,248,-552,-4024,63,-35,5,32162,28687,32762,-4,-3,0
3678.47,0,57,-22474,252,-537,-4005,42,-30,2,32163,28687,32762,-6,-7,0
3678.49,0,57,-22460,231,-569,-3967,23,-28,18,32160,28690,32762,-1,-3,0
3678.5,0,57,-22444,248,-542,-3930,40,-48,7,32163,28687,32764,-1,-3,0
3678.52,0,57,-22428,242,-536,-4033,32,-58,0,32162,28689,32764,-2,-3,0
3678.53,0,57,-22414,245,-557,-4015,64,-8,-2,32162,28689,32763,-3,-3,0
3678.55,0,57,-22398,238,-600,-3922,21,-35,-7,32162,28690,32764,-3,-1,0
3678.56,0,57,-22383,262,-472,-4013,-95,-56,15,32162,28689,32760,-2,-8,0
3678.58,0,57,-22368,249,-546,-4074,137,-10,8,32160,28687,32761,-2,-5,0
3678.59,0,57,-22353,255,-575,-3956,89,-32,11,32163,28689,32762,-1,-6,0
3678.61,0,57,-22338,238,-544,-4088,-84,-90,-3,32162,28690,32761,-2,-2,0
3678.62,0,57,-22323,228,-523,-3949,62,45,2,32161,28688,32760,-2,-3,0
3678.64,0,57,-22307,266,-551,-3909,70,-101,-2,32164,28688,32761,-4,-5,0
3678.65,0,57,-22293,228,-542,-4062,-17,-105,15,32161,28689,32762,-3,-2,0
3678.67,0,57,-22277,220,-541,-3949,88,35,7,32162,28687,32762,-2,-2,0
3678.68,0,57,-22261,262,-558,-4056,16,-48,-3,32162,28691,32764,-3,-3,0
3678.7,0,57,-22247,243,-538,-4019,-31,-73,-8,32161,28688,32762,-3,-4,0
3678.71,0,57,-22231,234,-542,-3931,106,3,-2,32162,28689,32763,-3,-3,0
3678.73,0,57,-22216,260,-544,-4005,29,-61,13,32162,28688,32761,-1,-4,0
3678.74,0,57,-22201,229,-546,-4011,-14,-24,-3,32162,28690,32762,-1,-1,0
3678.76,0,57,-22186,262,-525,-3982,74,-48,8,32163,28687,32762,-1,-1,0
3678.77,0,57,-22171,229,-576,-4010,55,-50,-1,32161,28688,32762,-3,-7,0
3678.79,0,57,-22156,240,-542,-3999,-4,2,16,32161,28687,32762,-5,-2,0
3678.8,0,57,-22140,255,-529,-3980,47,-13,9,32162,28689,32762,-5,-3,0
3678.83,0,57,-22125,238,-550,-4003,111,-70,13,32161,28691,32765,-5,-4,0
3678.83,0,57,-22110,240,-558,-3999,35,-15,14,32162,28690,32765,-2,-4,0
3678.85,0,57,-22094,250,-540,-3995,-22,-6,14,32161,28686,32759,-4,-3,0
3678.86,0,57,-22080,244,-541,-3980,67,-28,8,32162,28688,32764,-2,-6,0
3678.88,0,57,-22064,266,-545,-3990,56,-70,-3,32162,28689,32762,14,-8,0
3678.89,0,57,-22049,224,-554,-4012,63,-46,-4,32162,28689,32762,-1,-3,0
3678.91,0,57,-22034,241,-544,-4013,20,-1,3,32162,28689,32766,-1,2,0
3678.92,0,57,-22019,265,-535,-3957,-23,17,17,32162,28690,32762,-3,-1,0
3678.94,0,57,-22004,228,-574,-3984,94,-76,-18,32162,28689,32766,-5,-2,0
3678.95,0,57,-21988,254,-549,-4033,46,7,1,32163,28687,32761,-2,-3,0
3678.97,0,57,-21973,248,-559,-3990,10,-12,7,32160,28687,32762,-4,-6,0
3679,0,57,-21958,253,-538,-3997,61,-69,10,32163,28689,32764,-5,-5,0
3679,0,57,-21943,236,-553,-3974,52,-74,-3,32161,28686,32762,-5,-3,0
3679.03,0,57,-21927,242,-548,-3978,18,-31,10,32161,28692,32764,-1,-4,0
3679.03,0,57,-21913,242,-548,-4024,17,10,-2,32161,28688,32762,-5,-1,0
3679.06,0,57,-21897,237,-550,-3953,51,-33,0,32160,28690,32764,-5,-3,0
3679.06,0,57,-21882,249,-517,-3959,-47,-9,-6,32160,28690,32764,-6,-6,0
3679.09,0,57,-21867,145,-501,-3953,-56,-49,-61,32160,28686,32765,-2,-2,0
3679.09,0,57,-21852,220,-489,-3859,-78,192,-62,32161,28686,32764,-1,-4,0
3679.12,0,57,-21837,350,-574,-4025,127,326,-18,32160,28684,32767,-5,-3,0
3679.12,0,57,-21822,366,-595,-4267,261,59,9,32161,28688,-32766,-5,-1,0
3679.15,0,57,-21806,287,-578,-4027,-78,-139,15,32157,28688,32766,-3,-3,0
3679.15,0,57,-21791,190,-576,-3907,-117,-247,-6,32154,28690,32764,-3,-9,0
3679.18,0,57,-21776,174,-536,-4010,27,-60,0,32155,28689,32767,-4,-1,0
3679.18,0,57,-21760,276,-541,-4016,37,312,59,32156,28685,-32767,-1,-5,0
3679.21,0,57,-21746,349,-487,-3714,-122,213,39,32160,28688,32767,-4,-6,0
3679.21,0,57,-21730,304,-501,-3969,20,-384,-17,32159,28695,-32767,-2,-6,0
3679.24,0,57,-21715,250,-550,-4204,-50,-278,21,32155,28687,32764,-5,-3,0
3679.24,0,57,-21700,221,-568,-3948,-188,8,27,32151,28686,-32767,-4,-6,0
3679.27,0,57,-21685,242,-466,-3926,-230,177,12,32149,28685,-32768,-1,-3,0
3679.27,0,57,-21670,311,-440,-3986,-77,182,17,32146,28687,-32762,-4,-3,0
3679.3,0,57,-21655,284,-508,-3939,-4,-61,16,32138,28687,-32764,-4,-3,0
3679.31,0,57,-21639,246,-526,-4066,-14,-226,14,32129,28686,-32758,-5,-3,0
3679.33,0,57,-21624,274,-465,-4263,-31,71,62,32122,28685,-32756,-2,-5,0
3679.33,0,57,-21609,266,-508,-4116,24,11,44,32116,28682,-32756,-3,-5,0
3679.36,0,57,-21593,312,-504,-4045,0,-83,61,32113,28688,-32753,-6,-7,0
3679.36,0,57,-21579,289,-460,-4036,67,-100,99,32110,28692,-32747,-5,-1,0
3679.39,0,57,-21563,253,-436,-4109,249,-97,121,32108,28691,-32748,-2,-3,0
3679.39,0,57,-21548,218,-459,-4139,382,-66,120,32107,28692,-32743,-3,-1,0
3679.42,0,57,-21533,124,-554,-4051,516,-3,66,32108,28692,-32745,-2,-5,0
3679.42,0,57,-21518,152,-649,-3874,471,124,34,32110,28697,-32739,1,-3,0
3679.45,0,57,-21503,279,-667,-3780,182,184,42,32111,28703,-32739,-4,-5,0
3679.45,0,57,-21487,320,-625,-3794,-56,-58,23,32114,28710,-32737,-1,-3,0
3679.48,0,57,-21472,268,-533,-3938,-96,-266,-8,32115,28711,-32739,-5,-5,0
3679.48,0,57,-21457,234,-516,-4020,8,-145,28,32114,28708,-32738,-7,-3,0
3679.51,0,57,-21442,243,-538,-4050,88,66,26,32112,28703,-32736,-3,-3,0
3679.51,0,57,-21426,297,-542,-4017,75,90,38,32113,28707,-32730,-3,-4,0
3679.54,0,57,-21412,311,-530,-3935,29,-72,34,32112,28706,-32735,-3,-4,0
3679.54,0,57,-21396,280,-550,-3967,23,-271,22,32109,28710,-32732,-5,-9,0
3679.57,0,57,-21381,232,-544,-4014,-20,-210,22,32106,28709,-32731,-5,-6,0
3679.57,0,57,-21366,226,-553,-4032,31,-82,24,32104,28707,-32728,-3,-1,0
3679.6,0,57,-21350,256,-567,-3975,66,-48,37,32098,28707,-32731,-3,-5,0
3679.63,0,57,-21336,236,-601,-3938,-14,-180,26,32096,28712,-32727,-4,-5,0
3679.63,0,57,-21320,212,-600,-3944,-32,-210,0,32090,28711,-32726,-4,-5,0
3679.64,0,57,-21305,210,-586,-3979,-132,-118,19,32088,28711,-32728,-4,-5,0
3679.66,0,57,-21290,223,-551,-3980,-126,-36,-5,32084,28710,-32726,-6,-3,0
3679.67,0,57,-21275,235,-519,-3972,-44,-83,-7,32081,28709,-32723,-1,-3,0
3679.69,0,57,-21259,236,-522,-4029,19,-100,-7,32079,28713,-32724,-5,-6,0
3679.7,0,57,-21245,222,-533,-4053,24,-87,-20,32075,28710,-32727,-7,-3,0
3679.72,0,57,-21229,242,-525,-4039,13,2,-4,32075,28711,-32727,-3,-6,0
3679.73,0,57,-21214,264,-517,-4049,63,-24,-4,32074,28711,-32726,-2,-5,0
3679.75,0,57,-21199,243,-522,-4014,81,-112,1,32075,28714,-32730,-6,-7,0
3679.76,0,57,-21184,225,-534,-4011,95,-134,11,32073,28715,-32729,-5,-5,0
3679.78,0,57,-21169,190,-537,-4014,102,-105,8,32074,28714,-32733,-1,2,0
3679.79,0,57,-21153,157,-540,-4088,163,-34,-17,32076,28712,-32732,-4,-3,0
3679.81,0,57,-21138,259,-476,-4044,142,100,-3,32079,28713,-32734,-3,-5,0
3679.82,0,57,-21123,261,-591,-3906,187,82,-11,32085,28714,-32735,-4,-4,0
3679.84,0,57,-21108,268,-595,-3885,173,-70,-6,32087,28717,-32737,-6,-1,0
3679.85,0,57,-21092,266,-559,-3970,25,-60,9,32090,28719,-32739,-5,-3,0
3679.87,0,57,-21078,258,-533,-4036,-21,-23,-13,32090,28715,-32740,-3,-5,0
3679.9,0,57,-21062,269,-525,-4044,75,-2,6,32092,28713,-32737,-1,-2,0
3679.9,0,57,-21047,260,-540,-4009,99,-19,0,32093,28715,-32737,-2,-5,0
3679.91,0,57,-21032,234,-555,-3975,85,-41,0,32093,28716,-32739,-1,-5,0
3679.93,0,57,-21016,246,-544,-3980,21,4,8,32093,28715,-32738,-1,-1,0
3679.94,0,57,-21002,249,-536,-3983,23,-28,1,32094,28717,-32735,-3,-3,0
3679.96,0,57,-20986,225,-544,-3995,104,-63,6,32095,28714,-32737,-6,-6,0
3679.97,0,57,-20971,216,-568,-3989,72,2,8,32095,28713,-32739,-1,-3,0
3679.99,0,57,-20956,221,-551,-3988,56,-43,-12,32096,28713,-32740,-8,-5,0
3680,0,57,-20941,228,-540,-4010,82,6,-2,32097,28712,-32738,-2,-3,0
3680.02,0,57,-20925,266,-539,-4011,112,53,5,32098,28716,-32735,-6,-10,0
3680.03,0,57,-20911,285,-548,-4014,96,33,5,32100,28717,-32739,-3,-1,0
3680.05,0,57,-20895,279,-564,-3999,76,-10,19,32101,28714,-32737,-3,-2,0
3680.06,0,57,-20880,280,-569,-3974,66,-41,14,32100,28714,-32735,-3,-6,0
3680.08,0,57,-20865,264,-571,-3934,-6,-52,-3,32100,28716,-32737,-3,-3,0
3680.09,0,57,-20849,259,-572,-3944,-6,-81,27,32101,28716,-32736,-1,-5,0
3680.11,0,57,-20835,254,-577,-3943,-52,-106,21,32098,28715,-32734,-3,-1,0
3680.12,0,57,-20819,239,-560,-3981,-66,-134,13,32095,28714,-32732,-9,-6,0
3680.14,0,57,-20804,214,-546,-4011,-32,-112,-5,32094,28716,-32731,-1,-2,0
3680.15,0,57,-20789,188,-536,-4053,5,-89,-4,32092,28712,-32731,-3,-1,0
3680.17,0,57,-20774,176,-533,-4064,64,-6,8,32090,28710,-32732,-3,-3,0
3680.2,0,57,-20758,268,-540,-4003,52,70,-6,32090,28711,-32732,-1,-3,0
3680.2,0,57,-20741,280,-544,-4013,86,18,-5,32092,28713,-32733,-1,-3,0
3680.21,0,57,-20728,276,-545,-3963,31,-30,-9,32094,28714,-32730,-3,-4,0
3680.23,0,57,-20713,266,-542,-3978,11,-90,5,32093,28713,-32730,-4,-1,0
3680.26,0,57,-20698,257,-524,-4039,36,-31,26,32091,28713,-32733,-3,-4,0
3680.26,0,57,-20682,250,-533,-3996,46,-10,20,32094,28712,-32733,-5,-7,0
3680.29,0,57,-20668,244,-539,-3993,104,-41,15,32094,28713,-32733,-2,-4,0
3680.29,0,57,-20652,238,-551,-3995,81,-37,25,32095,28710,-32733,-5,-4,0
3680.32,0,57,-20637,244,-570,-3984,33,-12,13,32095,28711,-32733,-1,-3,0
3680.32,0,57,-20622,266,-559,-3944,25,-23,26,32096,28711,-32730,-3,-3,0
3680.35,0,57,-20607,259,-554,-3963,32,-73,20,32095,28712,-32733,-3,-3,0
3680.35,0,57,-20591,248,-561,-3981,29,-108,14,32093,28712,-32730,-4,-5,0
3680.38,0,57,-20577,235,-564,-3989,0,-87,13,32093,28711,-32732,-5,-5,0
3680.38,0,57,-20561,228,-554,-4010,-18,-62,22,32091,28713,-32729,-2,0,0
3680.41,0,57,-20546,222,-550,-4006,25,-77,-8,32089,28712,-32731,-4,-3,0
3680.41,0,57,-20531,230,-551,-3999,24,-82,-3,32089,28710,-32730,-1,-7,0
3680.44,0,57,-20515,228,-552,-4012,23,-60,-3,32088,28710,-32731,-3,-2,0
3680.44,0,57,-20501,229,-552,-4002,37,-45,-4,32087,28711,-32729,-7,-6,0
3680.47,0,57,-20485,230,-551,-3990,45,-31,-8,32087,28714,-32728,-1,-3,0
3680.47,0,57,-20470,233,-557,-3986,45,-24,4,32087,28713,-32730,-1,-1,0
3680.5,0,57,-20455,232,-546,-3992,23,-28,-9,32086,28710,-32731,-3,-5,0
3680.5,0,57,-20440,240,-546,-4000,42,1,-20,32087,28713,-32731,-1,-7,0
3680.53,0,57,-20424,247,-543,-4002,46,-41,-2,32086,28715,-32730,-5,-6,0
3680.53,0,57,-20410,251,-542,-4004,15,-15,4,32087,28714,-32729,-2,-5,0
3680.56,0,57,-20394,251,-535,-3998,23,-45,-3,32088,28709,-32735,-5,-3,0
3680.56,0,57,-20379,242,-538,-4006,38,-48,-6,32087,28714,-32728,-5,-6,0
3680.59,0,57,-20364,246,-545,-4016,46,-28,-15,32088,28716,-32733,-5,-2,0
3680.59,0,57,-20348,234,-550,-4007,50,-37,9,32088,28714,-32729,-5,-8,0
3680.62,0,57,-20334,228,-554,-4003,27,-41,-12,32088,28709,-32735,-5,-4,0
3680.62,0,57,-20318,235,-545,-3991,50,-33,-1,32089,28712,-32731,-4,-1,0
3680.65,0,57,-20303,235,-546,-3994,56,-17,1,32090,28713,-32732,-5,-3,0
3680.66,0,57,-20288,233,-554,-3997,55,-49,-7,32090,28711,-32730,-3,-4,0
3680.68,0,57,-20273,240,-556,-3993,50,-39,-4,32089,28711,-32733,-4,-5,0
3680.68,0,57,-20257,238,-548,-3998,26,-23,7,32091,28710,-32733,-5,-6,0
3680.71,0,57,-20243,241,-548,-3983,52,-29,-13,32092,28709,-32734,-2,-5,0
3680.71,0,57,-20227,242,-550,-3997,75,-16,8,32090,28715,-32730,-3,-3,0
3680.74,0,57,-20212,250,-550,-3983,58,-26,-17,32094,28710,-32736,-2,-2,0
3680.74,0,57,-20197,247,-559,-3992,50,-56,-13,32095,28711,-32734,-2,-7,0
3680.77,0,57,-20181,240,-552,-3988,43,-50,-18,32095,28713,-32734,-2,-8,0
3680.77,0,57,-20167,238,-550,-3989,36,-35,-6,32096,28708,-32735,-6,-4,0
3680.8,0,57,-20151,249,-549,-3998,44,-19,4,32098,28712,-32738,-1,-1,0
3680.8,0,57,-20136,247,-550,-3985,59,-30,-8,32098,28712,-32735,-2,-1,0
3680.83,0,57,-20121,255,-554,-3983,42,-37,-1,32099,28711,-32738,-5,-6,0
3680.83,0,57,-20106,251,-556,-3990,59,-55,-14,32100,28712,-32738,-6,-2,0
3680.86,0,57,-20090,244,-549,-3991,37,-43,9,32099,28710,-32736,-4,-6,0
3680.87,0,57,-20075,246,-556,-3995,7,-40,9,32097,28712,-32735,-4,-3,0
3680.89,0,57,-20060,235,-553,-3998,57,-40,7,32099,28713,-32736,-4,-4,0
3680.9,0,57,-20045,238,-551,-4002,33,-45,-2,32098,28713,-32736,-3,-3,0
3680.92,0,57,-20030,238,-552,-3995,41,-29,-2,32100,28713,-32736,-3,-7,0
3680.93,0,57,-20014,243,-547,-3994,44,-46,2,32098,28714,-32737,-4,-3,0
3680.95,0,57,-20000,244,-548,-3991,47,-33,1,32097,28713,-32738,-3,-1,0
3680.96,0,57,-19984,242,-549,-4004,54,-46,2,32098,28712,-32738,-3,-5,0
3680.98,0,57,-19969,243,-549,-3989,49,-23,1,32099,28711,-32740,-6,-9,0
3680.99,0,57,-19954,244,-552,-3995,48,-45,24,32098,28714,-32737,-3,14,0
3681.01,0,57,-19939,244,-550,-3994,45,-39,13,32099,28710,-32739,-6,-5,0
3681.02,0,57,-19923,239,-552,-3989,50,-33,-11,32099,28712,-32738,-1,-6,0
3681.04,0,57,-19908,244,-562,-4000,38,-46,-10,32099,28713,-32739,-5,-5,0
3681.05,0,57,-19893,244,-556,-3981,27,-39,2,32098,28713,-32739,-5,-1,0
3681.07,0,57,-19878,246,-552,-3986,31,-71,14,32097,28712,-32738,-4,-5,0
3681.08,0,57,-19863,242,-554,-4002,13,-39,15,32097,28714,-32738,-3,-5,0
3681.1,0,57,-19847,246,-552,-3996,27,-66,5,32098,28713,-32739,-3,-6,0
3681.11,0,57,-19833,235,-553,-4005,37,-62,6,32098,28713,-32739,-5,-1,0
3681.13,0,57,-19817,233,-552,-3989,30,-37,1,32098,28713,-32739,-1,-1,0
3681.14,0,57,-19802,235,-551,-3983,32,-39,3,32098,28712,-32739,-1,-2,0
3681.16,0,57,-19787,241,-551,-3992,29,-39,0,32098,28710,-32740,-3,-2,0
3681.17,0,57,-19771,243,-549,-3983,29,-44,1,32097,28713,-32739,-5,-2,0
3681.19,0,57,-19756,245,-554,-4004,42,-53,-1,32100,28712,-32742,-5,-3,0
3681.2,0,57,-19741,245,-552,-4000,-2,-41,11,32098,28714,-32740,-5,-3,0
3681.22,0,57,-19726,236,-550,-3997,27,-40,-14,32097,28712,-32739,-4,-6,0
3681.23,0,57,-19711,238,-549,-3991,23,-41,3,32096,28711,-32737,-4,-1,0
3681.25,0,57,-19696,240,-551,-3991,44,-55,-14,32095,28714,-32739,-2,-5,0
3681.26,0,57,-19680,238,-553,-4003,29,-30,-10,32097,28716,-32737,-7,-5,0
3681.28,0,57,-19666,245,-547,-4000,31,-51,-7,32096,28712,-32740,-1,-4,0
3681.29,0,57,-19650,243,-546,-4004,38,-22,4,32097,28713,-32739,-2,-5,0
3681.31,0,57,-19635,234,-551,-3996,19,-45,3,32096,28711,-32740,-3,-8,0
3681.32,0,57,-19620,236,-551,-3999,54,-31,20,32095,28714,-32740,-4,-7,0
3681.34,0,57,-19604,240,-550,-3992,19,-44,-2,32096,28711,-32739,-3,-6,0
3681.35,0,57,-19589,244,-550,-3987,47,-25,5,32096,28713,-32739,-4,-5,0
3681.37,0,57,-19574,247,-550,-4000,51,-48,5,32097,28713,-32739,-2,-1,0
3681.38,0,57,-19559,234,-554,-3985,42,-57,5,32094,28713,-32738,-2,-1,0
3681.4,0,57,-19544,239,-548,-3993,37,-42,6,32095,28712,-32740,-1,-2,0
3681.41,0,57,-19529,243,-550,-4001,40,-34,11,32096,28715,-32734,-3,-2,0
3681.43,0,57,-19513,246,-549,-3983,50,-39,4,32097,28713,-32739,-2,-1,0
3681.44,0,57,-19499,238,-554,-4006,27,-40,9,32095,28716,-32737,-3,-2,0
3681.46,0,57,-19483,246,-551,-3987,29,-43,2,32096,28713,-32739,-2,-2,0
3681.49,0,57,-19467,246,-547,-3998,35,-44,5,32095,28713,-32739,-3,-2,0
3681.49,0,57,-19453,234,-549,-4003,32,-36,4,32094,28712,-32738,-1,-6,0
3681.52,0,57,-19437,237,-549,-3992,37,-41,5,32094,28713,-32739,-2,-2,0
3681.52,0,57,-19422,237,-553,-4006,32,-31,11,32096,28715,-32736,-2,-3,0
3681.55,0,57,-19407,249,-548,-3989,12,-38,0,32095,28713,-32737,-3,-1,0
3681.55,0,57,-19392,244,-554,-3988,59,-54,-20,32094,28713,-32739,-4,-2,0
3681.58,0,57,-19377,246,-549,-3992,-3,-38,1,32095,28713,-32739,-1,-3,0
3681.58,0,57,-19362,230,-551,-4007,13,-46,9,32093,28713,-32739,-3,-6,0
3681.61,0,57,-19346,232,-550,-3997,49,-36,3,32092,28712,-32741,-3,-6,0
3681.61,0,57,-19332,229,-545,-4000,50,-48,7,32094,28714,-32736,-5,-4,0
