Program Time [s],Device ID,Accelerometer X Axis,Accelerometer Y axis,Accelerometer Z Axis,Gyroscope X Axis,Gyroscope Y Axis,Gyroscope Z Axis,Magnetometer X Axis,Magnetometer Y Axis,Magnetometer Z Axis,Not Used currently,Not Used currently,Not Used currently
2830.82,0,-4086,-67,831,-141,872,77,-31716,31140,31331,0,0,0
2830.85,0,-4038,-88,1100,-175,640,-441,-31717,31139,31326,0,0,0
2830.85,0,-4110,25,1178,-89,89,-818,-31716,31142,31322,0,0,0
2830.88,0,-4006,80,1211,-491,-366,-1116,-31714,31147,31321,0,0,0
2830.88,0,-4184,330,960,-575,-979,-1001,-31711,31154,31326,0,0,0
2830.91,0,-3663,477,481,-630,-861,-930,-31705,31158,31335,0,0,0
2830.91,0,-3539,584,432,-427,98,-730,-31699,31164,31342,0,0,0
2830.94,0,-3706,621,847,-363,837,-494,-31697,31168,31343,0,0,0
2830.94,0,-3899,511,1189,-144,499,-292,-31696,31169,31338,0,0,0
2830.97,0,-4059,352,1003,-210,-228,-51,-31698,31169,31336,0,0,0
2830.97,0,-3609,235,602,-72,-211,-80,-31697,31171,31336,0,0,0
2831,0,-3679,310,570,133,629,-25,-31695,31168,31337,0,0,0
2831,0,-3734,397,735,-181,1222,-50,-31698,31169,31334,0,0,0
2831.03,0,-3862,453,1047,-361,1233,-32,-31701,31173,31324,0,0,0
2831.03,0,-4028,372,1216,-167,811,106,-31706,31170,31316,0,0,0
2831.06,0,-4106,326,1347,306,324,101,-31710,31169,31312,0,0,0
2831.06,0,-4206,325,1121,49,-123,297,-31712,31169,31306,0,0,0
2831.09,0,-4050,203,968,-92,-247,207,-31710,31169,31306,0,0,0
2831.09,0,-3972,246,809,-268,-162,27,-31711,31168,31309,0,0,0
2831.12,0,-4000,311,701,-510,-11,-212,-31711,31164,31312,0,0,0
2831.12,0,-3929,329,648,-876,330,-443,-31710,31164,31312,0,0,0
2831.15,0,-4115,351,867,-597,628,-400,-31712,31163,31315,0,0,0
2831.15,0,-4187,235,1030,78,490,-190,-31713,31166,31312,0,0,0
2831.18,0,-4092,287,1056,289,237,-125,-31712,31166,31308,0,0,0
2831.18,0,-4035,308,993,96,-187,-120,-31712,31168,31306,0,0,0
2831.21,0,-3958,370,883,17,-220,-92,-31713,31170,31308,0,0,0
2831.21,0,-3962,364,858,43,-131,46,-31712,31170,31309,0,0,0
2831.24,0,-3766,314,740,-304,-270,-21,-31713,31169,31310,0,0,0
2831.24,0,-3814,263,702,-294,-94,4,-31709,31170,31312,0,0,0
2831.27,0,-3819,213,778,-181,171,56,-31711,31167,31312,0,0,0
2831.27,0,-3888,207,904,-41,226,11,-31710,31169,31315,0,0,0
2831.3,0,-3951,225,1014,60,177,22,-31712,31167,31309,0,0,0
2831.31,0,-4089,248,1160,132,45,10,-31711,31168,31309,0,0,0
2831.33,0,-4034,243,1101,-60,-330,-148,-31712,31167,31310,0,0,0
2831.34,0,-4097,220,982,-330,-419,-230,-31711,31168,31311,0,0,0
2831.36,0,-4037,250,689,-874,-535,-519,-31709,31168,31314,0,0,0
2831.37,0,-3858,186,582,-945,99,-678,-31707,31169,31321,0,0,0
2831.39,0,-3834,291,642,-1011,690,-754,-31705,31169,31326,0,0,0
2831.4,0,-4056,326,1059,-665,957,-573,-31703,31171,31325,0,0,0
2831.42,0,-4200,433,1391,-98,615,-290,-31705,31174,31317,0,0,0
2831.43,0,-4163,515,952,193,-162,-4,-31705,31176,31311,0,0,0
2831.45,0,-3815,394,674,356,343,387,-31705,31179,31312,0,0,0
2831.46,0,-3751,309,704,136,761,469,-31708,31174,31309,0,0,0
2831.48,0,-3981,221,909,-75,942,599,-31711,31175,31305,0,0,0
2831.49,0,-4004,99,1130,-207,700,598,-31715,31168,31297,0,0,0
2831.51,0,-3982,37,1048,-194,34,486,-31718,31163,31292,0,0,0
2831.52,0,-3915,36,866,-337,50,236,-31720,31162,31296,0,0,0
2831.54,0,-3934,23,617,-477,62,-71,-31721,31158,31296,0,0,0
2831.55,0,-3680,21,400,-459,477,-336,-31723,31157,31297,0,0,0
2831.57,0,-3708,178,440,-383,974,-476,-31724,31158,31296,0,0,0
2831.58,0,-3986,276,687,-418,1358,-479,-31724,31160,31289,0,0,0
2831.6,0,-3998,373,870,-632,1286,-424,-31728,31163,31282,0,0,0
2831.61,0,-4166,366,1049,-343,981,-97,-31729,31163,31277,0,0,0
2831.63,0,-4129,338,1073,-197,510,192,-31732,31162,31269,0,0,0
2831.64,0,-4017,406,920,-465,211,204,-31734,31161,31264,0,0,0
2831.66,0,-4024,351,882,-278,44,382,-31735,31160,31267,0,0,0
2831.67,0,-3960,168,743,-427,-129,580,-31735,31155,31268,0,0,0
2831.69,0,-3897,113,687,-401,-182,650,-31738,31150,31269,0,0,0
2831.7,0,-3909,80,735,-164,-112,602,-31739,31143,31272,0,0,0
2831.72,0,-4003,113,908,-16,-69,437,-31742,31138,31274,0,0,0
2831.73,0,-4080,113,1084,141,-431,158,-31744,31136,31274,0,0,0
2831.75,0,-4251,216,1268,160,-1016,-92,-31742,31135,31279,0,0,0
2831.76,0,-4338,295,1383,344,-1781,-247,-31740,31136,31285,0,0,0
2831.78,0,-4422,388,1264,-106,-2679,-217,-31733,31137,31292,0,0,0
2831.79,0,-4124,322,1084,-372,-3684,-251,-31724,31138,31314,0,0,0
2831.81,0,-3874,444,1255,-1354,-4600,-166,-31713,31136,31340,0,0,0
2831.82,0,-3942,372,1405,-1673,-5587,-658,-31702,31135,31376,0,0,0
2831.84,0,-4071,275,1925,-1449,-6420,-1277,-31683,31132,31420,0,0,0
2831.85,0,-4645,182,2980,-751,-7346,-1333,-31664,31136,31471,0,0,0
2831.87,0,-5783,140,3070,343,-10691,-1359,-31644,31143,31527,0,0,0
2831.88,0,-4801,-241,1326,-1531,-14094,-489,-31621,31148,31605,0,0,0
2831.9,0,-3514,-172,576,-2320,-13752,-1692,-31602,31149,31710,0,0,0
2831.91,0,-3112,83,592,-1634,-12640,-2274,-31586,31154,31819,0,0,0
2831.93,0,-3091,854,765,-1167,-11217,-1859,-31576,31166,31921,0,0,0
2831.96,0,-2396,575,1930,-1596,-9841,-1390,-31575,31179,32005,0,0,0
2831.96,0,-2700,861,2649,-1803,-10176,-1296,-31575,31188,32086,0,0,0
2831.99,0,-3545,774,3518,-1018,-9202,-710,-31582,31195,32169,0,0,0
2831.99,0,-3832,447,3346,550,-9679,446,-31595,31201,32240,0,0,0
2832.02,0,-3629,-364,3381,647,-10479,1717,-31612,31196,32310,0,0,0
2832.02,0,-3342,-434,3237,849,-13279,100,-31639,31179,32384,0,0,0
2832.05,0,-1832,754,1815,-1741,-17880,-1207,-31674,31176,32479,0,0,0
2832.05,0,-2512,-100,3143,-4471,-14534,-2057,-31721,31184,32597,0,0,0
2832.08,0,-2338,-1182,2740,-5854,-15907,-3599,-31771,31215,32712,0,0,0
2832.08,0,-2388,-2040,2255,-4834,-17059,-5884,-31827,31260,-32709,0,0,0
2832.11,0,-1683,-342,1605,-1281,-17334,-7590,-31895,31316,-32594,0,0,0
2832.11,0,-600,81,1970,-374,-14272,-6327,-31970,31363,-32496,0,0,0
2832.14,0,532,-862,1231,-1164,-12390,-6241,-32038,31404,-32416,0,0,0
2832.14,0,810,537,2191,-297,-7879,-5541,-32102,31441,-32350,0,0,0
2832.17,0,-342,-512,5421,3070,-2910,-2575,-32140,31467,-32314,0,0,0
2832.17,0,-740,-1651,5616,3178,-4637,-2434,-32158,31464,-32299,0,0,0
2832.2,0,-326,-1599,4746,2784,-6368,-3147,-32183,31455,-32286,0,0,0
2832.2,0,66,-354,4225,3231,-5010,-3031,-32220,31452,-32264,0,0,0
2832.23,0,156,-496,4927,3365,-3082,-1887,-32249,31442,-32246,0,0,0
2832.23,0,203,-368,4627,2436,-4190,-1706,-32265,31428,-32236,0,0,0
2832.26,0,515,-193,4235,1033,-4662,-1720,-32291,31418,-32226,0,0,0
2832.26,0,872,265,3522,-718,-3553,-1991,-32319,31419,-32209,0,0,0
2832.29,0,422,293,4094,-873,-718,-1308,-32339,31432,-32197,0,0,0
2832.29,0,402,-243,3909,-1065,747,-1203,-32341,31444,-32191,0,0,0
2832.32,0,224,-43,4200,-851,1729,-1014,-32335,31456,-32188,0,0,0
2832.32,0,314,268,4255,13,2328,-69,-32324,31466,-32198,0,0,0
2832.35,0,344,246,4144,299,2892,800,-32305,31468,-32208,0,0,0
2832.35,0,-39,-333,4396,691,3339,1689,-32287,31466,-32220,0,0,0
2832.38,0,-240,-1245,4516,747,2995,1508,-32268,31453,-32236,0,0,0
2832.38,0,-369,-1241,4438,197,2006,610,-32249,31444,-32250,0,0,0
2832.41,0,-182,-793,4196,-388,1383,-175,-32237,31439,-32258,0,0,0
2832.41,0,-223,-424,4287,-447,1672,-144,-32225,31441,-32264,0,0,0
2832.44,0,-238,-479,4208,-391,1504,-66,-32211,31447,-32272,0,0,0
2832.44,0,-190,-461,4202,67,1114,52,-32201,31451,-32277,0,0,0
2832.47,0,-212,-323,4245,599,910,308,-32195,31450,-32284,0,0,0
2832.47,0,-122,-250,4387,1032,556,608,-32191,31445,-32291,0,0,0
2832.5,0,-186,-326,4318,904,119,516,-32187,31435,-32294,0,0,0
2832.5,0,-79,-415,4140,186,-227,20,-32188,31428,-32296,0,0,0
2832.53,0,77,-206,4009,-604,-62,-378,-32188,31426,-32292,0,0,0
2832.53,0,-76,-78,4297,-480,433,-127,-32186,31431,-32295,0,0,0
2832.56,0,-138,-259,4503,-150,334,91,-32187,31434,-32295,0,0,0
2832.57,0,-166,-289,4517,376,-91,305,-32185,31435,-32295,0,0,0
2832.59,0,-61,-312,4254,494,-427,177,-32185,31432,-32294,0,0,0
2832.6,0,-103,-308,4407,504,-446,52,-32188,31428,-32295,0,0,0
2832.62,0,47,-390,4276,33,-987,-478,-32190,31427,-32292,0,0,0
2832.63,0,119,-178,4022,-317,-1320,-702,-32195,31428,-32290,0,0,0
2832.65,0,212,62,3896,-447,-1060,-613,-32201,31434,-32282,0,0,0
2832.66,0,-28,133,4236,-214,-840,-248,-32208,31436,-32275,0,0,0
2832.68,0,13,-205,4206,33,-1312,-179,-32214,31441,-32272,0,0,0
2832.69,0,-6,-131,4113,358,-1760,-81,-32222,31444,-32266,0,0,0
2832.71,0,76,-175,3954,402,-1812,-48,-32232,31441,-32260,0,0,0
2832.72,0,229,96,3995,120,-2065,41,-32244,31440,-32250,0,0,0
2832.74,0,723,69,3717,-519,-1315,1334,-32259,31439,-32245,0,0,0
2832.75,0,131,-92,3370,-761,-873,1226,-32270,31436,-32234,0,0,0
2832.77,0,446,-284,3492,-1128,-236,1525,-32279,31438,-32231,0,0,0
2832.78,0,326,-174,3521,-1338,255,1705,-32284,31438,-32229,0,0,0
2832.8,0,-747,-1450,4252,-3487,-5364,-578,-32291,31453,-32223,0,0,0
2832.81,0,-985,-580,6926,-3956,-11108,-1479,-32328,31486,-32192,0,0,0
2832.83,0,-271,-647,4788,-2016,-13672,257,-32400,31514,-32149,0,0,0
2832.84,0,607,-702,4228,153,-17018,848,-32502,31528,-32095,0,0,0
2832.86,0,733,-328,3598,379,-19486,492,-32634,31527,-32048,0,0,0
2832.87,0,856,-442,3312,-776,-20674,869,32752,31525,-32005,0,0,0
2832.89,0,935,-311,2659,-1852,-22776,1048,32585,31534,-31972,0,0,0
2832.9,0,1350,-564,3010,-2695,-25570,781,32396,31552,-31953,0,0,0
2832.92,0,2126,-526,1974,-1913,-24366,-680,32190,31579,-31957,0,0,0
2832.93,0,2186,-826,2116,-1364,-22490,-1223,31995,31602,-31981,0,0,0
2832.95,0,442,566,1606,-3213,-24628,-1435,31814,31610,-32024,0,0,0
2832.96,0,1630,-195,1492,-4629,-26033,-1736,31632,31640,-32093,0,0,0
2832.98,0,1784,202,1125,-5289,-28741,-3022,31442,31678,-32184,0,0,0
2832.99,0,4326,-545,805,-4475,-26843,-3066,31257,31710,-32311,0,0,0
2833.01,0,4146,-1407,-643,-4022,-22259,-2566,31100,31731,-32446,0,0,0
2833.02,0,4030,-973,-695,-3040,-19308,-2925,30981,31745,-32578,0,0,0
2833.04,0,4096,-805,-1045,-1932,-16819,-2266,30892,31751,-32697,0,0,0
2833.05,0,5214,-981,-1489,409,-13503,-2359,30823,31751,32728,0,0,0
2833.07,0,6206,-52,-1638,1706,-8144,-3208,30776,31739,32635,0,0,0
2833.08,0,5871,-1378,-1412,2002,-2945,-3998,30752,31714,32576,0,0,0
2833.1,0,4982,-724,-1296,2204,279,-4207,30748,31677,32553,0,0,0
2833.11,0,4055,-124,-1085,1383,1098,-2679,30751,31641,32554,0,0,0
2833.13,0,4373,-439,-889,910,995,-1764,30759,31615,32560,0,0,0
2833.14,0,4371,-182,-1090,928,1334,-1423,30765,31597,32567,0,0,0
2833.16,0,4164,163,-962,367,1848,-844,30772,31582,32576,0,0,0
2833.17,0,4512,-123,-694,322,2145,-634,30779,31575,32587,0,0,0
2833.19,0,4219,62,-647,563,1861,-1031,30786,31569,32604,0,0,0
2833.22,0,3988,-140,-628,673,1816,-1180,30795,31560,32617,0,0,0
2833.22,0,3987,-199,-738,1155,1751,-1974,30802,31549,32628,0,0,0
2833.25,0,4088,-318,-634,1643,1782,-2659,30813,31528,32639,0,0,0
2833.25,0,3919,-186,-592,1423,2087,-1980,30824,31504,32651,0,0,0
2833.28,0,4295,-101,-326,986,2196,-1487,30837,31483,32666,0,0,0
2833.28,0,4570,-11,-200,661,2201,-1163,30848,31470,32680,0,0,0
2833.31,0,4375,-102,-234,284,2199,-535,30857,31458,32694,0,0,0
2833.31,0,4220,124,-219,-136,2075,82,30867,31451,32710,0,0,0
2833.34,0,4241,9,-306,-244,2125,168,30875,31452,32722,0,0,0
2833.34,0,4352,-46,-453,121,2416,-153,30883,31452,32735,0,0,0
2833.37,0,4090,36,-490,422,2780,-544,30892,31451,32752,0,0,0
2833.37,0,4030,144,-350,616,2964,-538,30904,31444,-32766,0,0,0
2833.4,0,3961,91,-194,679,2759,-630,30919,31436,-32748,0,0,0
2833.4,0,3934,283,-78,513,2622,97,30932,31426,-32730,0,0,0
2833.43,0,4123,-76,1,52,2922,329,30943,31425,-32713,0,0,0
2833.43,0,3980,-56,149,47,2885,590,30956,31427,-32695,0,0,0
2833.46,0,3916,-242,532,165,1673,288,30967,31430,-32675,0,0,0
2833.46,0,3472,18,619,758,-317,-90,30973,31433,-32669,0,0,0
2833.49,0,4010,-214,217,757,-942,-181,30974,31425,-32670,0,0,0
2833.49,0,3995,-198,285,888,-1221,-585,30970,31423,-32676,0,0,0
2833.52,0,3787,-19,-105,729,-1776,-840,30965,31416,-32686,0,0,0
2833.52,0,4057,-200,-125,180,-1731,-1075,30958,31406,-32700,0,0,0
2833.55,0,3999,-13,-79,191,-1543,-1750,30956,31399,-32710,0,0,0
2833.55,0,4171,47,-82,28,-1074,-1735,30951,31388,-32716,0,0,0
2833.58,0,4134,302,-98,-36,-802,-1646,30951,31377,-32726,0,0,0
2833.58,0,4193,315,11,205,-645,-1741,30953,31367,-32728,0,0,0
2833.61,0,4163,98,52,497,-702,-1832,30953,31354,-32732,0,0,0
2833.61,0,4164,197,12,109,-491,-1558,30956,31340,-32738,0,0,0
2833.64,0,4311,229,75,84,-552,-1531,30957,31329,-32741,0,0,0
2833.64,0,4095,322,-48,-128,-674,-1356,30958,31319,-32744,0,0,0
2833.67,0,4213,374,6,-155,-524,-997,30961,31311,-32748,0,0,0
2833.67,0,4180,383,-64,-78,-639,-701,30961,31306,-32750,0,0,0
2833.7,0,4063,445,-223,-193,-661,-462,30961,31301,-32752,0,0,0
2833.7,0,4245,349,-148,-402,-380,-149,30959,31299,-32756,0,0,0
2833.73,0,4226,234,-60,-163,-436,-287,30958,31297,-32759,0,0,0
2833.73,0,3996,286,-138,67,-835,-712,30958,31298,-32761,0,0,0
2833.76,0,3975,360,-348,-246,-643,-321,30956,31293,-32765,0,0,0
2833.76,0,4064,521,-288,-625,-265,426,30955,31293,-32768,0,0,0
2833.79,0,3927,478,-220,-625,-294,777,30953,31297,-32766,0,0,0
2833.79,0,4064,259,-243,-614,-13,804,30949,31306,-32768,0,0,0
2833.82,0,3995,196,-187,-457,61,561,30947,31313,32767,0,0,0
2833.82,0,4012,114,-213,-129,-148,132,30946,31319,-32768,0,0,0
2833.85,0,3989,177,-198,266,-347,-658,30945,31319,-32765,0,0,0
2833.86,0,4017,340,-348,140,-162,-670,30946,31312,-32768,0,0,0
2833.88,0,4154,492,-258,52,213,-448,30947,31309,32765,0,0,0
2833.89,0,4095,475,-25,234,148,-571,30950,31305,32767,0,0,0
2833.91,0,3969,564,-253,-20,-28,-187,30951,31300,-32767,0,0,0
2833.92,0,4145,506,-273,-264,437,351,30951,31299,-32767,0,0,0
2833.94,0,3987,472,-124,-504,536,976,30955,31303,-32763,0,0,0
2833.95,0,4068,336,-107,-384,315,878,30953,31312,-32759,0,0,0
2833.97,0,4101,328,-121,-271,384,667,30953,31316,-32753,0,0,0
2833.98,0,4035,402,-64,-400,283,721,30951,31323,-32755,0,0,0
2834,0,4163,280,-57,-408,172,700,30952,31331,-32749,0,0,0
2834.01,0,4120,204,-21,-370,169,528,30953,31337,-32748,0,0,0
2834.03,0,4011,190,-107,-211,-162,236,30951,31340,-32744,0,0,0
2834.04,0,4077,190,-253,-116,-85,-49,30950,31345,-32744,0,0,0
2834.06,0,4024,162,-223,-231,143,-167,30951,31344,-32743,0,0,0
2834.07,0,4037,308,-180,-341,164,-161,30952,31344,-32744,0,0,0
2834.09,0,4100,273,-82,-178,47,-338,30952,31343,-32741,0,0,0
2834.1,0,3967,401,-233,-84,-103,-445,30955,31341,-32740,0,0,0
2834.12,0,4094,319,-223,-211,23,-346,30956,31339,-32740,0,0,0
2834.13,0,4051,337,-110,-90,-2,-527,30957,31337,-32738,0,0,0
2834.15,0,3976,328,-237,-74,-113,-685,30958,31336,-32738,0,0,0
2834.16,0,4051,389,-246,-150,180,-723,30960,31330,-32737,0,0,0
2834.18,0,4166,372,-22,-25,236,-864,30962,31327,-32738,0,0,0
2834.19,0,4110,504,-17,77,78,-1047,30967,31322,-32734,0,0,0
2834.21,0,4119,511,-116,55,221,-930,30968,31312,-32734,0,0,0
2834.22,0,3917,670,-190,-55,335,-605,30971,31306,-32734,0,0,0
2834.24,0,4066,628,-193,-296,616,70,30976,31302,-32730,0,0,0
2834.25,0,4128,531,1,-128,710,149,30978,31301,-32726,0,0,0
2834.27,0,4079,377,-9,-232,600,243,30980,31305,-32720,0,0,0
2834.28,0,4139,304,10,-195,589,117,30983,31306,-32716,0,0,0
2834.3,0,4075,406,-69,-216,608,133,30986,31308,-32714,0,0,0
2834.31,0,4199,479,-108,-308,827,312,30987,31313,-32706,0,0,0
2834.33,0,4188,588,-161,-710,1306,898,30989,31314,-32700,0,0,0
2834.34,0,4286,534,-27,-1300,1893,1656,30993,31325,-32691,0,0,0
2834.36,0,4431,748,42,-1950,2656,2483,30998,31339,-32675,0,0,0
2834.37,0,4392,180,-13,-2850,3933,3701,31004,31364,-32655,0,0,0
2834.4,0,4059,599,494,-3458,3173,4907,31016,31399,-32626,0,0,0
2834.4,0,3860,1423,438,-5978,2214,9031,31020,31448,-32601,0,0,0
2834.42,0,4339,1770,195,-9057,2757,14486,31016,31538,-32575,0,0,0
2834.43,0,4506,1524,266,-11767,3701,20287,31011,31680,-32553,0,0,0
2834.45,0,4377,19,846,-12831,3911,22891,31021,31872,-32529,0,0,0
2834.46,0,2726,-446,299,-15474,2976,26785,31051,32087,-32518,0,0,0
2834.48,0,2771,-2151,-547,-16911,2828,28398,31105,32338,-32529,0,0,0
2834.51,0,1993,-2648,-1286,-17636,3867,28903,31194,32594,-32561,0,0,0
2834.51,0,2631,-4748,-796,-15527,4909,25130,31320,-32700,-32610,0,0,0
2834.54,0,1409,-5386,-912,-11878,5237,18318,31460,-32505,-32667,0,0,0
2834.54,0,1890,-5076,-640,-8714,5920,12974,31584,-32379,-32714,0,0,0
2834.57,0,2034,-4182,-956,-5439,6145,8534,31689,-32293,-32748,0,0,0
2834.57,0,1900,-3243,-763,-3745,6702,7094,31767,-32242,-32763,0,0,0
2834.6,0,2176,-2770,-390,-3480,7426,7904,31845,-32209,32765,0,0,0
2834.6,0,2084,-3108,264,-4092,7345,9076,31924,-32178,32753,0,0,0
2834.63,0,1589,-3191,875,-4284,4733,8857,32016,-32146,32738,0,0,0
2834.63,0,1381,-3759,655,-4277,1760,8038,32094,-32115,32716,0,0,0
2834.66,0,1847,-3764,-120,-3000,598,6569,32160,-32091,32690,0,0,0
2834.66,0,1214,-3640,-546,-1431,291,5396,32210,-32078,32669,0,0,0
2834.69,0,1006,-3644,-538,-757,346,5320,32249,-32067,32657,0,0,0
2834.69,0,1593,-3912,-367,-461,1264,5193,32290,-32062,32650,0,0,0
2834.72,0,1113,-4155,-104,-425,1527,4675,32331,-32061,32648,0,0,0
2834.72,0,1302,-4392,-156,21,2091,3646,32368,-32061,32643,0,0,0
2834.75,0,1420,-4038,334,298,1533,3376,32403,-32065,32644,0,0,0
2834.75,0,1222,-3803,466,1047,-964,2691,32432,-32066,32649,0,0,0
2834.78,0,773,-3748,61,915,-2970,2784,32449,-32074,32652,0,0,0
2834.78,0,781,-4561,-19,755,-3546,2385,32458,-32081,32661,0,0,0
2834.81,0,1070,-4588,-328,989,-2813,846,32463,-32083,32669,0,0,0
2834.81,0,857,-4362,-63,1026,-2421,217,32458,-32087,32676,0,0,0
2834.84,0,1185,-3793,53,1303,-3024,41,32451,-32092,32685,0,0,0
2834.84,0,1237,-3681,220,1723,-4340,-148,32439,-32097,32695,0,0,0
2834.87,0,1472,-3661,285,1966,-5358,-72,32421,-32106,32710,0,0,0
2834.87,0,1761,-3854,493,2547,-6120,-404,32398,-32115,32724,0,0,0
2834.9,0,71,-3877,265,2590,-7863,-654,32371,-32127,32742,0,0,0
2834.9,0,367,-4510,-219,1648,-7317,-583,32335,-32135,32760,0,0,0
2834.94,0,1345,-4963,487,2190,-6648,-1338,32299,-32142,-32765,0,0,0
2834.94,0,1215,-4645,1156,4501,-8257,-3250,32259,-32153,-32753,0,0,0
2834.96,0,371,-3571,1089,5604,-11844,-4238,32204,-32175,-32727,0,0,0
2834.96,0,-758,-2702,-42,3700,-15555,-2579,32122,-32202,-32700,0,0,0
2834.99,0,-488,-3454,-557,1896,-17147,-811,32035,-32221,-32695,0,0,0
2834.99,0,-732,-3427,-1010,-279,-17829,919,31952,-32229,-32710,0,0,0
2835.02,0,249,-4319,-985,-1824,-16939,1874,31876,-32221,-32742,0,0,0
2835.02,0,1015,-4774,-1339,-2602,-14685,3037,31818,-32211,32742,0,0,0
2835.05,0,916,-4930,-1428,-2069,-12224,3109,31778,-32188,32692,0,0,0
2835.05,0,1066,-4693,-1770,-1038,-10242,2226,31752,-32170,32645,0,0,0
2835.08,0,1449,-4731,-1792,327,-7647,1672,31729,-32157,32612,0,0,0
2835.08,0,1268,-4599,-1734,1949,-4792,1239,31713,-32154,32594,0,0,0
2835.11,0,1340,-4461,-1501,2710,-1684,1457,31703,-32156,32591,0,0,0
2835.12,0,849,-4403,-376,1610,308,3233,31709,-32162,32599,0,0,0
2835.14,0,1059,-4734,379,825,-494,3662,31730,-32160,32615,0,0,0
2835.15,0,578,-4191,-97,-100,-1084,4011,31752,-32152,32617,0,0,0
2835.17,0,725,-4259,-432,-92,-1052,3763,31775,-32142,32614,0,0,0
2835.18,0,159,-3982,-780,96,-836,3430,31797,-32132,32611,0,0,0
2835.2,0,249,-4316,-600,-171,-21,3248,31817,-32121,32611,0,0,0
2835.21,0,251,-4239,-526,47,155,2310,31839,-32114,32607,0,0,0
2835.23,0,116,-4230,-311,-127,526,1877,31857,-32108,32605,0,0,0
2835.24,0,94,-4151,-254,-109,437,1557,31872,-32105,32606,0,0,0
2835.26,0,12,-3942,-422,222,77,840,31883,-32101,32607,0,0,0
2835.27,0,62,-3991,-330,403,-28,592,31890,-32098,32606,0,0,0
2835.29,0,66,-3939,-392,607,-519,-77,31892,-32100,32612,0,0,0
2835.3,0,26,-3923,-453,610,-849,-566,31890,-32101,32615,0,0,0
2835.32,0,313,-4032,-388,415,-871,-564,31883,-32104,32616,0,0,0
2835.33,0,172,-4110,-282,72,-877,-477,31877,-32109,32617,0,0,0
2835.35,0,-45,-4205,-345,-137,-1115,-288,31871,-32110,32615,0,0,0
2835.36,0,72,-4118,-606,-15,-1029,-516,31867,-32109,32615,0,0,0
2835.38,0,136,-4078,-591,189,-846,-548,31858,-32108,32610,0,0,0
2835.39,0,329,-4184,-556,355,-551,-416,31851,-32110,32610,0,0,0
2835.41,0,460,-4220,-393,240,-128,-34,31846,-32113,32608,0,0,0
2835.42,0,96,-4295,-256,-222,-373,425,31844,-32113,32612,0,0,0
2835.44,0,161,-4356,-330,-167,-821,243,31847,-32110,32607,0,0,0
2835.45,0,9,-4323,-551,-110,-899,-195,31847,-32110,32607,0,0,0
2835.47,0,44,-4192,-701,-61,-643,-287,31842,-32111,32603,0,0,0
2835.48,0,-86,-4097,-702,303,-169,-239,31838,-32109,32600,0,0,0
2835.5,0,353,-4110,-547,246,362,231,31836,-32109,32602,0,0,0
2835.51,0,272,-4205,-388,0,671,690,31839,-32110,32603,0,0,0
2835.53,0,9,-4269,-445,9,327,535,31846,-32109,32608,0,0,0
2835.54,0,300,-4354,-535,393,408,-20,31852,-32109,32607,0,0,0
2835.56,0,-58,-4094,-330,179,226,-31,31854,-32111,32609,0,0,0
2835.57,0,108,-4192,-465,163,-291,-328,31854,-32111,32610,0,0,0
2835.59,0,241,-4222,-440,311,-201,-678,31850,-32111,32610,0,0,0
2835.6,0,376,-4257,-164,-29,77,-112,31847,-32113,32612,0,0,0
2835.62,0,124,-4256,-141,-565,-473,266,31846,-32113,32611,0,0,0
2835.63,0,104,-4208,-506,-459,-862,-77,31845,-32110,32607,0,0,0
2835.65,0,-89,-4122,-552,-315,-699,-56,31841,-32108,32601,0,0,0
2835.66,0,128,-4148,-626,-395,-471,378,31838,-32107,32597,0,0,0
2835.68,0,28,-4155,-696,-134,-162,161,31841,-32105,32594,0,0,0
2835.69,0,-21,-4128,-670,111,-65,-133,31843,-32103,32594,0,0,0
2835.71,0,124,-4371,-370,-33,404,-106,31841,-32104,32592,0,0,0
2835.72,0,3,-4186,-141,-523,188,572,31839,-32103,32591,0,0,0
2835.74,0,162,-4231,-473,-590,-90,434,31846,-32100,32590,0,0,0
2835.77,0,116,-4159,-568,-339,-37,70,31850,-32096,32586,0,0,0
2835.77,0,23,-4152,-555,-57,-25,-297,31849,-32094,32583,0,0,0
2835.8,0,-126,-4119,-615,-14,-286,-472,31847,-32094,32581,0,0,0
2835.8,0,164,-4082,-709,222,42,-697,31842,-32097,32582,0,0,0
2835.83,0,376,-4103,-339,-110,474,-146,31839,-32096,32583,0,0,0
2835.83,0,102,-4116,-203,-655,-106,480,31839,-32098,32583,0,0,0
2835.86,0,208,-4220,-462,-767,-575,408,31841,-32094,32577,0,0,0
2835.86,0,77,-4185,-722,-624,-481,225,31844,-32087,32570,0,0,0
2835.89,0,-5,-4162,-796,-236,-201,-52,31844,-32085,32562,0,0,0
2835.89,0,30,-4062,-803,154,32,-344,31842,-32085,32562,0,0,0
2835.92,0,140,-4054,-522,178,233,-152,31840,-32087,32565,0,0,0
2835.92,0,272,-4175,-409,36,20,41,31839,-32089,32564,0,0,0
2835.95,0,46,-4159,-465,-19,-210,23,31840,-32090,32562,0,0,0
2835.95,0,36,-4065,-546,-262,-241,310,31840,-32088,32565,0,0,0
2835.98,0,148,-4191,-657,-296,-139,427,31841,-32085,32563,0,0,0
2835.98,0,173,-4245,-652,-83,55,170,31845,-32083,32556,0,0,0
2836.01,0,192,-4307,-466,-239,68,125,31845,-32083,32558,0,0,0
2836.01,0,23,-4194,-442,-484,-348,181,31846,-32080,32555,0,0,0
2836.04,0,51,-4165,-705,-323,-436,179,31847,-32076,32550,0,0,0
2836.04,0,249,-4208,-750,35,-85,-63,31846,-32077,32548,0,0,0
2836.07,0,53,-4066,-648,230,-49,-122,31847,-32076,32548,0,0,0
2836.07,0,78,-4133,-522,5,71,234,31847,-32078,32549,0,0,0
2836.11,0,135,-4268,-499,-180,12,388,31846,-32077,32551,0,0,0
2836.11,0,12,-4191,-601,-40,-184,30,31851,-32076,32548,0,0,0
2836.13,0,-10,-4065,-712,230,-108,-102,31851,-32074,32548,0,0,0
2836.13,0,172,-4157,-677,496,243,-253,31849,-32077,32549,0,0,0
2836.16,0,69,-4147,-558,523,343,-176,31848,-32077,32552,0,0,0
2836.16,0,103,-4247,-479,428,412,-33,31848,-32080,32556,0,0,0
2836.19,0,93,-4242,-415,317,442,107,31851,-32082,32561,0,0,0
2836.19,0,137,-4404,-705,628,512,-142,31851,-32080,32560,0,0,0
2836.22,0,191,-4225,-889,1124,1465,-407,31853,-32086,32568,0,0,0
2836.22,0,271,-4284,-818,1770,2196,-796,31855,-32091,32581,0,0,0
2836.25,0,151,-4219,-701,2530,3218,-657,31859,-32098,32595,0,0,0
2836.25,0,521,-4464,-928,3727,4190,-1190,31865,-32113,32620,0,0,0
2836.28,0,393,-4344,-837,4822,5803,-1534,31872,-32129,32654,0,0,0
2836.28,0,84,-4096,-505,5931,6680,-1146,31885,-32153,32700,0,0,0
2836.31,0,200,-3970,-406,6927,6790,-1201,31905,-32183,32749,0,0,0
2836.31,0,32,-3858,-165,7388,6155,-1217,31927,-32218,-32730,0,0,0
2836.34,0,-43,-4337,-363,9544,5521,-2015,31948,-32261,-32670,0,0,0
2836.34,0,4,-3824,-650,11444,6086,-3145,31964,-32317,-32603,0,0,0
2836.37,0,251,-3765,-190,13780,5652,-5101,31977,-32387,-32525,0,0,0
2836.37,0,216,-3513,-67,17229,4481,-7984,31980,-32480,-32440,0,0,0
2836.4,0,308,-3209,162,20600,4235,-9637,31969,-32603,-32344,0,0,0
2836.41,0,1552,-4124,1638,23699,6166,-12815,31957,-32765,-32244,0,0,0
2836.43,0,2291,-3065,3363,24935,9088,-11582,31956,32570,-32144,0,0,0
2836.44,0,-165,-1582,4724,24125,5628,-7773,31990,32357,-32059,0,0,0
2836.46,0,152,-577,4445,21656,1208,-3462,32020,32149,-32003,0,0,0
2836.47,0,1120,-754,3089,20502,-1540,-1327,32027,31963,-31978,0,0,0
2836.49,0,1013,152,1740,20682,-433,235,32020,31789,-31970,0,0,0
2836.5,0,1161,644,1890,19594,2491,1905,32020,31620,-31981,0,0,0
2836.52,0,1286,-305,2958,16849,5851,3588,32040,31463,-31996,0,0,0
2836.53,0,139,-2752,4912,12174,9185,5145,32082,31330,-32019,0,0,0
2836.55,0,87,-2903,5835,9518,8616,5723,32144,31238,-32037,0,0,0
2836.56,0,752,-2179,5488,8135,6247,3985,32194,31166,-32056,0,0,0
2836.58,0,-537,-974,5252,6782,3914,4380,32231,31107,-32075,0,0,0
2836.59,0,556,-1271,4376,5435,2647,4135,32248,31058,-32094,0,0,0
2836.61,0,37,-1396,4699,5728,848,2335,32257,31017,-32112,0,0,0
2836.62,0,-155,-1096,4871,4611,-1697,751,32253,30979,-32130,0,0,0
2836.64,0,172,-1202,4656,2207,-2534,338,32240,30946,-32149,0,0,0
2836.65,0,390,-1474,4486,999,-1878,-159,32222,30933,-32156,0,0,0
2836.67,0,-243,-956,4465,703,-1769,-502,32209,30925,-32162,0,0,0
2836.68,0,23,-803,4286,531,-2268,-644,32200,30919,-32166,0,0,0
2836.7,0,319,-618,3943,738,-1533,-165,32187,30917,-32172,0,0,0
2836.71,0,361,-788,4032,357,-573,3,32178,30912,-32172,0,0,0
2836.73,0,414,-931,4256,-136,117,-6,32172,30907,-32175,0,0,0
2836.74,0,491,-765,4300,-444,299,90,32173,30911,-32175,0,0,0
2836.76,0,566,-781,4348,-836,375,-58,32175,30913,-32172,0,0,0
2836.77,0,373,-550,4388,-975,105,-144,32179,30921,-32168,0,0,0
2836.79,0,411,-466,4156,-785,-306,-128,32179,30925,-32165,0,0,0
2836.8,0,429,-305,3909,-410,-552,-210,32178,30930,-32163,0,0,0
2836.82,0,516,-490,3907,-87,-398,-332,32175,30934,-32161,0,0,0
2836.83,0,572,-558,3935,162,-136,-333,32175,30936,-32162,0,0,0
2836.85,0,509,-537,4013,-165,-107,-372,32175,30936,-32161,0,0,0
2836.86,0,591,-734,3990,-575,167,-312,32176,30935,-32159,0,0,0
2836.88,0,743,-334,4232,-383,271,73,32178,30939,-32159,0,0,0
2836.89,0,733,-554,4363,-261,-90,51,32180,30943,-32157,0,0,0
2836.91,0,663,-750,4212,-267,-499,-273,32178,30944,-32155,0,0,0
2836.92,0,389,-316,3944,-470,-528,213,32176,30945,-32156,0,0,0
2836.94,0,502,-434,3849,-371,-506,99,32172,30948,-32152,0,0,0
2836.95,0,533,-656,3798,213,-309,-319,32168,30952,-32153,0,0,0
2836.97,0,424,-334,3754,485,201,112,32168,30951,-32152,0,0,0
2836.98,0,524,-684,3994,417,706,279,32170,30948,-32155,0,0,0
2837,0,439,-812,4258,590,518,92,32174,30946,-32155,0,0,0
2837.03,0,492,-886,4297,374,365,23,32177,30941,-32155,0,0,0
2837.03,0,238,-937,4382,-17,347,-32,32181,30938,-32158,0,0,0
2837.06,0,259,-711,4170,-422,35,80,32184,30941,-32155,0,0,0
2837.06,0,348,-588,4046,-101,-280,-239,32182,30943,-32157,0,0,0
2837.09,0,471,-656,4078,164,-446,-513,32184,30945,-32155,0,0,0
2837.09,0,319,-638,4164,218,-399,-564,32182,30944,-32154,0,0,0
2837.12,0,554,-652,4185,179,-441,-614,32181,30941,-32155,0,0,0
2837.12,0,508,-696,4270,217,-617,-850,32180,30940,-32158,0,0,0
2837.15,0,613,-657,4264,-33,-775,-843,32179,30940,-32155,0,0,0
2837.15,0,466,-689,4325,73,-941,-954,32177,30938,-32159,0,0,0
2837.18,0,388,-591,4280,264,-1380,-1179,32174,30936,-32158,0,0,0
2837.18,0,555,-516,4208,286,-2003,-1514,32169,30933,-32162,0,0,0
2837.21,0,515,-554,4265,240,-2438,-1743,32160,30933,-32162,0,0,0
2837.21,0,670,-551,4094,100,-2445,-1965,32152,30928,-32166,0,0,0
2837.24,0,779,-336,3821,-246,-2077,-1786,32141,30927,-32168,0,0,0
2837.24,0,694,-502,3878,-305,-1646,-1926,32132,30929,-32169,0,0,0
2837.27,0,815,-422,3938,-31,-1382,-1768,32129,30930,-32169,0,0,0
2837.27,0,977,-419,4072,555,-1259,-1824,32126,30928,-32170,0,0,0
2837.3,0,1038,-394,4021,764,-1119,-1663,32124,30923,-32174,0,0,0
2837.3,0,1112,-723,4170,815,-1094,-1988,32126,30916,-32176,0,0,0
2837.33,0,908,-512,4460,804,-1398,-2399,32125,30908,-32179,0,0,0
2837.33,0,1173,-497,4399,634,-2070,-2635,32124,30902,-32185,0,0,0
2837.37,0,1033,-590,4369,578,-2312,-2856,32122,30892,-32190,0,0,0
2837.37,0,964,-157,4093,502,-2218,-2070,32116,30887,-32195,0,0,0
2837.39,0,1059,-510,4160,337,-2286,-2060,32111,30881,-32196,0,0,0
2837.39,0,1231,-936,4157,639,-2406,-3018,32102,30879,-32201,0,0,0
2837.42,0,1470,-1307,4061,955,-1869,-5050,32101,30872,-32205,0,0,0
2837.42,0,920,-803,4131,400,-804,-6066,32110,30859,-32210,0,0,0
2837.45,0,1057,346,5636,-1578,-1232,-5954,32129,30850,-32212,0,0,0
2837.45,0,1930,-597,5333,-2470,-4490,-6663,32141,30855,-32207,0,0,0
2837.48,0,2584,41,4451,-1245,-4387,-8175,32134,30866,-32200,0,0,0
2837.48,0,2051,195,4636,1158,-3236,-8951,32137,30866,-32198,0,0,0
2837.51,0,674,273,3906,1849,-3776,-10347,32153,30852,-32203,0,0,0
2837.51,0,3268,-759,3384,2292,-1536,-12254,32173,30831,-32216,0,0,0
2837.55,0,2061,-1083,2787,970,2371,-13213,32219,30810,-32225,0,0,0
2837.55,0,652,-215,2878,867,5631,-13570,32296,30794,-32226,0,0,0
2837.57,0,417,-431,2444,-829,6724,-12874,32394,30784,-32227,0,0,0
2837.57,0,-171,-900,2885,-2188,6334,-14649,32500,30796,-32228,0,0,0
2837.6,0,826,982,2889,-2982,6826,-15722,32607,30824,-32224,0,0,0
2837.6,0,1427,2125,4074,-1806,6872,-16079,32721,30864,-32222,0,0,0
2837.63,0,854,978,4085,-1116,6557,-16482,-32703,30911,-32228,0,0,0
2837.63,0,-731,-100,3995,147,7445,-15194,-32594,30960,-32242,0,0,0
2837.66,0,-3054,1203,2361,-3067,5506,-8257,-32491,31008,-32263,0,0,0
2837.67,0,-965,630,2360,-5943,2665,-4485,-32427,31058,-32274,0,0,0
2837.69,0,345,-91,3966,-5247,2924,-2334,-32391,31114,-32267,0,0,0
2837.7,0,590,-1214,5236,-2406,1818,-2610,-32364,31156,-32266,0,0,0
2837.72,0,208,51,5136,94,-137,-3049,-32344,31184,-32266,0,0,0
2837.73,0,126,-24,4773,1141,-1573,-1968,-32337,31198,-32264,0,0,0
2837.75,0,-335,-556,4243,2055,-2212,-868,-32341,31200,-32261,0,0,0
2837.76,0,111,-254,3637,2285,-2435,117,-32352,31191,-32258,0,0,0
2837.78,0,266,543,3517,1325,-2293,673,-32368,31175,-32254,0,0,0
2837.79,0,459,550,3578,64,-1584,639,-32385,31164,-32250,0,0,0
2837.81,0,847,552,3494,400,879,630,-32397,31155,-32246,0,0,0
2837.82,0,208,482,4848,-99,972,257,-32395,31154,-32248,0,0,0
2837.84,0,379,158,4073,424,917,-256,-32387,31152,-32253,0,0,0
2837.85,0,445,214,3952,542,905,-571,-32380,31152,-32262,0,0,0
2837.87,0,431,306,4753,742,-268,-502,-32373,31151,-32262,0,0,0
2837.88,0,318,701,4545,799,-1859,-250,-32373,31146,-32263,0,0,0
2837.9,0,460,688,4263,386,-2166,-87,-32383,31145,-32261,0,0,0
2837.91,0,476,401,4064,-262,-2040,-6,-32395,31143,-32253,0,0,0
2837.93,0,535,249,4082,-400,-1568,-89,-32409,31144,-32245,0,0,0
2837.94,0,453,276,4170,-439,-872,98,-32419,31147,-32240,0,0,0
2837.96,0,591,228,4230,-806,-239,401,-32424,31150,-32234,0,0,0
2837.97,0,538,164,4387,-727,153,623,-32428,31155,-32232,0,0,0
2837.99,0,421,224,4422,-200,-194,526,-32430,31156,-32228,0,0,0
2838,0,527,290,4121,-306,-688,443,-32431,31157,-32227,0,0,0
2838.02,0,388,221,4115,-597,-916,275,-32437,31159,-32224,0,0,0
2838.03,0,503,315,4069,-611,-899,124,-32445,31162,-32221,0,0,0
2838.05,0,739,-22,3677,-202,-707,90,-32451,31166,-32215,0,0,0
2838.06,0,647,702,3648,-585,-135,-266,-32454,31168,-32213,0,0,0
2838.08,0,647,360,3801,-1467,-290,-260,-32456,31173,-32212,0,0,0
2838.09,0,181,27,4612,-1054,-267,-30,-32456,31183,-32204,0,0,0
2838.11,0,150,162,4453,-268,-393,184,-32457,31193,-32202,0,0,0
2838.12,0,470,152,3893,117,-456,-95,-32460,31194,-32198,0,0,0
2838.14,0,548,260,3988,464,-42,372,-32460,31196,-32199,0,0,0
2838.15,0,547,162,4207,1040,202,420,-32463,31191,-32200,0,0,0
2838.17,0,628,324,4049,1057,464,135,-32463,31180,-32202,0,0,0
2838.18,0,626,130,4056,963,1084,-485,-32460,31175,-32206,0,0,0
2838.2,0,564,38,4117,1101,1930,-1244,-32449,31170,-32214,0,0,0
2838.21,0,702,287,3923,1336,3455,-1494,-32433,31166,-32225,0,0,0
2838.23,0,592,381,3910,1457,5842,-1642,-32405,31163,-32239,0,0,0
2838.24,0,372,203,3865,1829,8232,-1282,-32360,31160,-32268,0,0,0
2838.26,0,-44,299,4052,1908,9761,-251,-32303,31155,-32305,0,0,0
2838.27,0,285,523,4158,1139,10942,1060,-32241,31145,-32350,0,0,0
2838.29,0,-231,368,4672,509,12071,2119,-32176,31137,-32402,0,0,0
2838.32,0,-328,560,4170,1128,13388,2544,-32113,31124,-32462,0,0,0
2838.32,0,-1066,-132,4313,3424,13105,1638,-32045,31104,-32536,0,0,0
2838.35,0,-1574,410,4995,4783,13403,-1353,-31985,31083,-32612,0,0,0
2838.35,0,-962,964,4316,5256,15218,-2234,-31917,31070,-32707,0,0,0
2838.38,0,-1762,716,3500,5414,16897,-2724,-31845,31065,32719,0,0,0
2838.38,0,-2260,681,3084,5707,16320,-3383,-31774,31067,32597,0,0,0
2838.41,0,-2259,755,2666,6336,16307,-3941,-31712,31075,32469,0,0,0
2838.41,0,-2647,726,2415,6618,16636,-4100,-31659,31093,32335,0,0,0
2838.44,0,-3004,634,2086,6507,16688,-4832,-31616,31121,32195,0,0,0
2838.44,0,-2296,895,2814,6749,17412,-5049,-31583,31154,32052,0,0,0
2838.47,0,-2651,1044,2036,7140,19088,-4870,-31564,31197,31902,0,0,0
2838.47,0,-3155,1076,1568,6169,19810,-4791,-31558,31246,31739,0,0,0
2838.5,0,-3146,1173,1420,5526,19674,-4303,-31569,31298,31574,0,0,0
2838.5,0,-3721,217,548,4787,18461,-3063,-31597,31351,31416,0,0,0
2838.53,0,-4067,651,471,4022,15493,-2905,-31639,31396,31276,0,0,0
2838.53,0,-4191,1015,286,3909,13107,-2581,-31684,31439,31156,0,0,0
2838.56,0,-4482,1370,360,2388,12147,-2935,-31731,31480,31053,0,0,0
2838.56,0,-4021,1528,172,755,10294,-3125,-31778,31517,30968,0,0,0
2838.59,0,-4311,1154,377,151,8131,-2831,-31820,31543,30903,0,0,0
2838.59,0,-4348,652,42,740,7193,-2487,-31857,31568,30852,0,0,0
2838.62,0,-4075,765,-167,-354,6098,-2305,-31892,31587,30806,0,0,0
2838.62,0,-4207,560,-82,-1463,4160,-1914,-31919,31602,30772,0,0,0
2838.65,0,-4198,244,91,-1878,2740,-1745,-31938,31607,30750,0,0,0
2838.65,0,-4169,355,102,-1860,1044,-1274,-31952,31608,30737,0,0,0
2838.68,0,-3934,266,-245,-1980,55,-969,-31956,31606,30734,0,0,0
2838.68,0,-3887,141,-374,-2005,-97,-1046,-31955,31600,30736,0,0,0
2838.71,0,-3968,-28,-296,-1653,-103,-995,-31954,31593,30737,0,0,0
2838.71,0,-3964,70,-287,-1462,-558,-848,-31950,31591,30743,0,0,0
2838.74,0,-3909,270,-503,-1398,-733,-627,-31947,31588,30747,0,0,0
2838.74,0,-3938,611,-649,-1323,-569,-271,-31943,31582,30754,0,0,0
2838.77,0,-4064,385,-384,-544,-43,-28,-31939,31575,30758,0,0,0
2838.77,0,-4075,527,-444,309,230,230,-31938,31571,30758,0,0,0
2838.8,0,-3970,561,-796,-280,158,33,-31941,31572,30758,0,0,0
2838.8,0,-4023,373,-649,-699,291,-55,-31941,31571,30756,0,0,0
2838.83,0,-4072,282,-472,-759,355,-159,-31942,31568,30755,0,0,0
2838.83,0,-4034,449,-513,-884,262,-249,-31944,31563,30753,0,0,0
2838.86,0,-4072,432,-337,-665,378,-395,-31945,31562,30755,0,0,0
2838.86,0,-3998,368,-268,-120,414,-278,-31948,31559,30755,0,0,0
2838.89,0,-3998,316,-401,639,887,-250,-31951,31562,30749,0,0,0
2838.89,0,-4077,367,-447,645,964,-277,-31955,31567,30744,0,0,0
2838.92,0,-4114,414,-607,42,561,-426,-31959,31570,30739,0,0,0
2838.93,0,-4021,339,-588,-673,172,-460,-31962,31572,30736,0,0,0
2838.95,0,-4042,197,-301,-394,171,-392,-31965,31571,30735,0,0,0
2838.96,0,-4083,291,-289,-2,114,-249,-31964,31572,30735,0,0,0
2838.98,0,-3939,329,-472,-45,14,-176,-31963,31573,30732,0,0,0
2838.99,0,-3912,298,-527,-210,-9,-179,-31963,31573,30734,0,0,0
2839.01,0,-4030,216,-449,368,344,-89,-31963,31571,30735,0,0,0
2839.02,0,-4067,270,-501,1045,616,26,-31966,31575,30732,0,0,0
2839.04,0,-3950,407,-788,981,830,-45,-31970,31581,30726,0,0,0
2839.05,0,-4086,386,-673,610,741,-105,-31975,31588,30719,0,0,0
2839.07,0,-4010,267,-593,278,482,-154,-31978,31593,30715,0,0,0
2839.08,0,-3981,218,-582,462,507,-79,-31981,31595,30711,0,0,0
2839.1,0,-3964,357,-700,248,488,-155,-31985,31598,30707,0,0,0
2839.11,0,-3986,348,-607,-56,396,-201,-31989,31598,30705,0,0,0
2839.13,0,-3923,304,-579,-118,401,-204,-31989,31600,30704,0,0,0
2839.14,0,-3870,292,-589,-30,596,-139,-31992,31601,30700,0,0,0
2839.16,0,-3903,259,-470,1,583,-61,-31997,31603,30697,0,0,0
2839.17,0,-3959,182,-448,357,565,-5,-32001,31603,30693,0,0,0
2839.19,0,-4037,319,-532,326,273,21,-32003,31604,30690,0,0,0
2839.2,0,-3992,356,-644,262,119,38,-32003,31607,30688,0,0,0
2839.22,0,-3950,305,-734,49,124,-52,-32006,31609,30686,0,0,0
2839.23,0,-3993,277,-619,-140,39,-52,-32008,31608,30688,0,0,0
2839.25,0,-4063,297,-502,-145,-176,6,-32006,31607,30684,0,0,0
2839.26,0,-4014,271,-661,-23,-210,-15,-32006,31607,30687,0,0,0
2839.28,0,-4073,309,-568,74,-204,-17,-32004,31606,30687,0,0,0
2839.29,0,-3989,329,-694,276,-15,8,-32005,31606,30687,0,0,0
2839.31,0,-3984,409,-777,138,130,-56,-32006,31606,30688,0,0,0
2839.32,0,-4026,376,-728,-34,233,-126,-32006,31608,30691,0,0,0
2839.34,0,-3965,337,-672,-17,343,-161,-32007,31610,30686,0,0,0
2839.35,0,-3958,290,-618,87,356,-158,-32009,31612,30684,0,0,0
2839.37,0,-3977,309,-590,6,277,-160,-32010,31611,30681,0,0,0
2839.38,0,-3946,318,-652,-150,233,-213,-32012,31610,30680,0,0,0
2839.4,0,-3882,286,-729,-350,384,-206,-32014,31612,30680,0,0,0
2839.41,0,-3907,241,-687,-288,551,-135,-32016,31610,30677,0,0,0
2839.43,0,-3968,296,-649,-237,592,-100,-32018,31611,30674,0,0,0
2839.44,0,-3947,302,-613,-27,607,-71,-32022,31608,30671,0,0,0
2839.46,0,-3899,283,-677,160,553,-114,-32025,31609,30667,0,0,0
2839.47,0,-3974,320,-736,-193,321,-153,-32029,31610,30663,0,0,0
2839.49,0,-4058,259,-655,183,388,-126,-32030,31611,30663,0,0,0
2839.5,0,-3992,296,-824,-21,189,-224,-32034,31611,30660,0,0,0
2839.52,0,-4003,334,-800,-250,307,-227,-32037,31611,30660,0,0,0
2839.53,0,-4023,201,-732,-167,370,-164,-32036,31612,30660,0,0,0
2839.55,0,-4046,170,-648,211,267,-43,-32041,31613,30658,0,0,0
2839.58,0,-3947,176,-812,316,126,-17,-32042,31613,30652,0,0,0
2839.58,0,-3898,277,-860,-72,69,-130,-32043,31616,30652,0,0,0
2839.61,0,-4028,236,-680,2,147,-73,-32042,31615,30653,0,0,0
2839.61,0,-3949,231,-764,-30,92,-91,-32042,31616,30650,0,0,0
2839.64,0,-3938,294,-876,-388,44,-187,-32042,31615,30650,0,0,0
2839.64,0,-4018,210,-712,-331,11,-192,-32044,31613,30654,0,0,0
2839.67,0,-3957,162,-751,146,90,-67,-32045,31614,30652,0,0,0
2839.67,0,-3954,251,-802,213,117,-102,-32044,31615,30651,0,0,0
2839.7,0,-3975,252,-790,161,123,-136,-32045,31614,30650,0,0,0
2839.7,0,-3940,206,-769,232,85,-108,-32045,31617,30651,0,0,0
2839.73,0,-3908,164,-798,208,50,-66,-32048,31617,30648,0,0,0
2839.73,0,-3936,230,-781,59,-40,-24,-32048,31622,30646,0,0,0
2839.76,0,-4017,236,-735,-81,-258,-32,-32047,31620,30649,0,0,0
2839.76,0,-4107,285,-714,-232,-617,-35,-32044,31620,30647,0,0,0
2839.79,0,-4181,242,-724,-305,-1098,2,-32042,31618,30654,0,0,0
2839.79,0,-4348,299,-665,-454,-1983,109,-32034,31614,30659,0,0,0
2839.82,0,-4446,410,-565,-781,-3217,94,-32025,31612,30671,0,0,0
2839.82,0,-4761,448,-340,-1341,-5134,174,-32005,31605,30689,0,0,0
2839.85,0,-4791,364,-219,-1794,-7446,402,-31974,31594,30721,0,0,0
2839.85,0,-4738,435,-150,-2448,-9933,509,-31933,31577,30764,0,0,0
2839.88,0,-5004,306,119,-2990,-12827,484,-31879,31557,30828,0,0,0
2839.88,0,-5100,368,337,-3555,-15708,357,-31817,31530,30913,0,0,0
2839.91,0,-4520,57,419,-4309,-18637,1147,-31747,31502,31022,0,0,0
2839.91,0,-4468,290,127,-5011,-18864,1219,-31678,31470,31154,0,0,0
2839.94,0,-4032,435,499,-4764,-17756,897,-31618,31437,31297,0,0,0
2839.94,0,-3832,877,883,-5565,-18607,705,-31572,31407,31442,0,0,0
2839.97,0,-3512,464,1296,-7131,-20279,-338,-31539,31381,31595,0,0,0
2839.97,0,-3191,-48,1640,-6692,-21358,-1532,-31517,31369,31764,0,0,0
2840,0,-3315,-373,2966,-3273,-21690,-1775,-31509,31371,31943,0,0,0
2840,0,-2911,-346,3017,-570,-23670,-2137,-31519,31378,32120,0,0,0
2840.03,0,-2712,-626,2529,1494,-23687,-1802,-31550,31387,32300,0,0,0
2840.03,0,-2047,-20,2255,2623,-21880,-2212,-31602,31390,32472,0,0,0
2840.06,0,-1602,1304,2750,1598,-21295,-2315,-31666,31391,32625,0,0,0
2840.06,0,-1240,2120,2979,-1302,-22785,-3005,-31745,31401,-32767,0,0,0
2840.09,0,-2785,-597,3479,-2474,-24368,-1643,-31843,31420,-32616,0,0,0
2840.09,0,-2696,-289,3913,-20,-21783,3178,-31967,31438,-32474,0,0,0
2840.12,0,97,-445,2650,459,-23597,619,-32102,31417,-32356,0,0,0
2840.12,0,444,-122,3743,1257,-22043,-1469,-32254,31408,-32250,0,0,0
2840.15,0,549,-161,3300,2569,-17926,-2440,-32401,31403,-32162,0,0,0
2840.15,0,1441,173,3244,1453,-12841,-2387,-32526,31394,-32107,0,0,0
2840.18,0,1705,443,3854,487,-9400,-2050,-32619,31390,-32071,0,0,0
2840.18,0,1954,371,4255,-100,-7090,-1509,-32684,31394,-32051,0,0,0
2840.21,0,2287,66,3825,-203,-4931,-1038,-32737,31401,-32035,0,0,0
2840.22,0,2534,-12,3946,-22,-2171,-262,32760,31403,-32023,0,0,0
2840.24,0,2282,-185,3600,186,28,174,32745,31405,-32019,0,0,0
2840.25,0,2070,-262,3403,4,2123,146,32746,31405,-32021,0,0,0
2840.27,0,1827,-353,3522,242,3831,134,32762,31402,-32024,0,0,0
2840.28,0,1770,-294,3497,278,5272,371,-32745,31401,-32034,0,0,0
2840.3,0,1494,-158,3542,-150,6044,667,-32705,31397,-32043,0,0,0
2840.31,0,1106,-112,3955,-193,5708,847,-32661,31398,-32057,0,0,0
2840.33,0,969,-151,3923,-61,5034,761,-32618,31397,-32071,0,0,0
2840.34,0,763,-19,3802,55,4289,807,-32583,31394,-32085,0,0,0
2840.36,0,728,229,3975,-11,3528,682,-32551,31392,-32099,0,0,0
2840.37,0,447,235,4322,-3,1684,295,-32527,31389,-32109,0,0,0
2840.39,0,833,275,4082,-10,1201,187,-32512,31387,-32114,0,0,0
2840.4,0,780,46,4117,28,1061,404,-32503,31390,-32120,0,0,0
2840.42,0,616,159,4061,152,1163,453,-32496,31389,-32121,0,0,0
2840.43,0,521,246,4255,209,1054,533,-32488,31388,-32127,0,0,0
2840.45,0,658,263,4200,-58,713,478,-32481,31382,-32130,0,0,0
2840.46,0,674,86,4176,-185,604,513,-32476,31385,-32133,0,0,0
2840.48,0,760,76,4122,-371,538,613,-32472,31382,-32134,0,0,0
2840.49,0,689,91,4257,-447,533,667,-32470,31382,-32134,0,0,0
2840.51,0,657,31,4109,-351,450,592,-32467,31383,-32137,0,0,0
2840.54,0,708,-54,4139,-68,517,504,-32464,31385,-32137,0,0,0
2840.54,0,741,10,4085,55,648,551,-32461,31384,-32137,0,0,0
2840.55,0,641,132,4260,48,727,740,-32458,31383,-32140,0,0,0
2840.57,0,746,58,4206,168,340,877,-32455,31378,-32142,0,0,0
2840.58,0,696,8,4124,152,75,842,-32454,31376,-32146,0,0,0
2840.6,0,583,-87,3811,-102,-506,1234,-32454,31370,-32145,0,0,0
2840.61,0,657,-66,3992,-234,-1052,1361,-32460,31367,-32143,0,0,0
2840.63,0,835,-85,4174,-77,-1156,1288,-32471,31365,-32139,0,0,0
2840.64,0,689,-162,4008,20,-942,1371,-32482,31364,-32135,0,0,0
2840.66,0,578,-50,3937,-72,-999,1731,-32491,31360,-32133,0,0,0
2840.67,0,513,0,3918,41,-1257,1728,-32501,31351,-32127,0,0,0
2840.69,0,530,-29,4056,44,-1471,1787,-32513,31347,-32124,0,0,0
2840.7,0,569,0,3949,-62,-1486,2075,-32527,31340,-32120,0,0,0
2840.72,0,524,135,3918,-489,-1534,2241,-32542,31334,-32113,0,0,0
2840.73,0,623,100,4012,-828,-1858,2109,-32557,31331,-32109,0,0,0
2840.75,0,793,-58,4093,-521,-2159,1477,-32576,31332,-32103,0,0,0
2840.76,0,985,-180,4027,48,-1834,757,-32595,31332,-32097,0,0,0
2840.78,0,1035,-160,4045,534,-944,270,-32609,31329,-32090,0,0,0
2840.79,0,1145,-66,4065,622,255,23,-32616,31327,-32087,0,0,0
2840.81,0,1065,-130,4135,417,-53,57,-32614,31321,-32090,0,0,0
2840.84,0,1358,-164,4188,497,-362,205,-32615,31319,-32090,0,0,0
2840.84,0,1366,-72,4077,345,342,605,-32617,31316,-32092,0,0,0
2840.87,0,981,-97,3861,39,319,1139,-32617,31310,-32093,0,0,0
2840.87,0,869,-18,4046,173,161,812,-32617,31306,-32094,0,0,0
2840.9,0,843,16,4125,-134,131,501,-32617,31305,-32094,0,0,0
2840.9,0,894,36,4199,-208,-127,378,-32617,31304,-32095,0,0,0
2840.93,0,937,-90,4181,-196,-525,342,-32619,31306,-32093,0,0,0
2840.93,0,897,-87,4283,10,-706,149,-32625,31307,-32091,0,0,0
2840.96,0,936,-180,4272,212,-792,-118,-32628,31305,-32089,0,0,0
2840.96,0,937,-172,4180,160,-763,-123,-32634,31305,-32088,0,0,0
2840.99,0,929,-205,4139,431,-499,-60,-32639,31305,-32086,0,0,0
2840.99,0,724,-185,4175,682,-126,353,-32642,31303,-32085,0,0,0
2841.02,0,825,80,4132,307,-417,491,-32644,31297,-32086,0,0,0
2841.02,0,736,-77,4187,613,-537,614,-32650,31292,-32086,0,0,0
2841.05,0,960,-67,4056,374,-598,155,-32654,31288,-32084,0,0,0
2841.05,0,804,-55,4048,318,-1342,-353,-32661,31283,-32088,0,0,0
2841.08,0,837,82,4158,-32,-1510,-581,-32668,31281,-32084,0,0,0
2841.08,0,355,-494,4076,426,-1629,-403,-32678,31284,-32081,0,0,0
2841.11,0,136,-241,4212,654,-2598,692,-32689,31280,-32076,0,0,0
2841.11,0,3732,294,4583,193,-4565,-44,-32711,31275,-32075,0,0,0
2841.14,0,1098,155,2268,-2503,-4776,-151,-32744,31278,-32062,0,0,0
2841.14,0,1130,-209,3386,-3704,-4329,-1191,32759,31297,-32048,0,0,0
2841.17,0,266,-345,5126,-4036,-4343,-2316,32729,31331,-32033,0,0,0
2841.17,0,479,-1275,5529,1673,-6413,-2486,32698,31361,-32020,0,0,0
2841.2,0,2079,-857,3748,5410,-9348,-1419,32653,31354,-32011,0,0,0
2841.2,0,1294,-551,2627,7294,-10753,1284,32583,31317,-32008,0,0,0
2841.23,0,1110,-953,2386,9937,-12249,2183,32495,31257,-32018,0,0,0
2841.23,0,2174,-1564,1758,13933,-13290,971,32398,31180,-32036,0,0,0
2841.26,0,2667,-536,1594,17163,-11990,-1399,32296,31075,-32076,0,0,0
2841.26,0,3207,-221,1757,20099,-9019,-2113,32214,30952,-32140,0,0,0
2841.29,0,2298,2397,6228,20597,-12289,-2354,32161,30814,-32223,0,0,0
2841.29,0,2395,111,1645,26639,-11679,-5995,32113,30667,-32339,0,0,0
2841.32,0,4052,1156,-210,26945,-5454,-8455,32082,30514,-32489,0,0,0
2841.32,0,3130,-198,-12,28975,-1503,-11740,32108,30368,-32659,0,0,0
2841.35,0,1759,8,504,30951,-3296,-14389,32184,30242,32681,0,0,0
2841.35,0,972,2097,-201,31144,-9147,-15484,32281,30145,32457,0,0,0
2841.38,0,1005,3340,-710,29257,-12137,-15625,32385,30090,32221,0,0,0
2841.38,0,505,3327,-558,27658,-15272,-15239,32503,30079,32003,0,0,0
2841.41,0,946,4756,-2214,24005,-11245,-14393,32626,30104,31805,0,0,0
2841.41,0,1224,5951,-2684,20860,-7855,-11793,32749,30158,31640,0,0,0
2841.44,0,1150,6290,-4010,14847,-2625,-8301,-32683,30223,31506,0,0,0
2841.44,0,981,5938,-4322,7347,1632,-5337,-32618,30281,31408,0,0,0
2841.47,0,583,6002,-3892,-813,4037,-2852,-32581,30318,31354,0,0,0
2841.48,0,664,5536,-3257,-7738,5172,-267,-32573,30324,31350,0,0,0
2841.5,0,870,4460,-2031,-11385,5464,1304,-32585,30303,31383,0,0,0
2841.51,0,709,3448,-1079,-12075,4359,1786,-32607,30268,31450,0,0,0
2841.53,0,1011,3534,-680,-10328,3983,1327,-32629,30233,31524,0,0,0
2841.54,0,1156,3346,65,-7126,2976,826,-32647,30208,31590,0,0,0
2841.56,0,1090,3031,307,-3309,1667,-176,-32657,30191,31632,0,0,0
2841.57,0,1270,3044,133,-754,513,-1372,-32658,30186,31655,0,0,0
2841.59,0,1350,3180,-232,633,-218,-2011,-32648,30187,31662,0,0,0
2841.6,0,1389,3464,-587,1446,-163,-2303,-32633,30193,31659,0,0,0
2841.62,0,1513,3534,-759,1513,308,-2311,-32615,30201,31651,0,0,0
2841.63,0,1472,3513,-762,1299,1007,-2250,-32599,30209,31639,0,0,0
2841.65,0,1412,3686,-752,1204,1422,-2186,-32584,30217,31627,0,0,0
2841.66,0,1105,3829,-594,1173,1677,-1965,-32571,30229,31617,0,0,0
2841.68,0,1126,3944,-678,1064,1681,-1791,-32557,30235,31601,0,0,0
2841.69,0,1024,4089,-738,708,1654,-1577,-32546,30243,31592,0,0,0
2841.71,0,996,4186,-911,-42,1316,-1329,-32538,30247,31582,0,0,0
2841.72,0,979,4243,-985,-1072,1151,-1073,-32529,30251,31580,0,0,0
2841.74,0,1061,4201,-805,-2084,1158,-616,-32524,30253,31585,0,0,0
2841.75,0,1019,4038,-775,-2449,1216,-242,-32522,30252,31596,0,0,0
2841.77,0,1121,4114,-559,-2759,1149,-286,-32521,30247,31611,0,0,0
2841.78,0,1087,4146,-460,-3225,1149,137,-32521,30242,31625,0,0,0
2841.8,0,1116,3790,-613,-3172,1747,98,-32523,30237,31647,0,0,0
2841.81,0,1069,3840,-422,-3278,1922,31,-32528,30231,31664,0,0,0
2841.83,0,1100,3885,-458,-3423,2342,65,-32529,30226,31681,0,0,0
2841.84,0,1089,3890,-394,-3483,2775,-144,-32531,30219,31701,0,0,0
2841.86,0,1024,4204,-336,-3751,2862,-33,-32534,30216,31717,0,0,0
2841.87,0,1132,4206,-205,-3966,2800,-18,-32538,30213,31737,0,0,0
2841.89,0,953,4296,-77,-4694,2852,258,-32538,30205,31759,0,0,0
2841.9,0,943,4274,150,-5830,2647,640,-32543,30202,31784,0,0,0
2841.92,0,1022,4123,265,-7183,2496,932,-32549,30194,31820,0,0,0
2841.93,0,1120,3995,227,-8910,2718,1213,-32556,30187,31864,0,0,0
2841.95,0,1192,4034,157,-11688,3258,1762,-32566,30180,31924,0,0,0
2841.96,0,1338,4020,271,-14966,4126,2735,-32579,30173,32000,0,0,0
2841.98,0,1428,3787,341,-17920,5382,3722,-32597,30168,32101,0,0,0
2841.99,0,1363,3020,772,-19668,7068,4028,-32621,30173,32216,0,0,0
2842.01,0,1356,2651,1199,-21370,8726,3446,-32638,30192,32341,0,0,0
2842.02,0,1181,2237,1446,-23198,10030,2563,-32642,30228,32472,0,0,0
2842.04,0,1045,1618,1608,-24216,11119,1364,-32630,30289,32605,0,0,0
2842.05,0,490,1631,2888,-25521,11885,-732,-32599,30367,32735,0,0,0
2842.07,0,879,1556,4629,-25111,9876,-1576,-32545,30474,-32679,0,0,0
2842.08,0,732,1493,4936,-22564,6219,-2075,-32487,30597,-32568,0,0,0
2842.1,0,659,2016,4534,-19876,3346,-1952,-32445,30720,-32478,0,0,0
2842.13,0,721,2526,3748,-17861,2403,-1096,-32417,30843,-32402,0,0,0
2842.13,0,198,1448,5045,-14266,1518,829,-32396,30957,-32337,0,0,0
2842.16,0,828,1333,5082,-9312,-972,1044,-32392,31042,-32291,0,0,0
2842.16,0,388,820,4488,-10089,-2561,530,-32403,31104,-32257,0,0,0
2842.19,0,130,527,4532,-9195,-3731,863,-32420,31169,-32219,0,0,0
2842.19,0,588,465,4158,-9153,-3732,504,-32450,31234,-32181,0,0,0
2842.22,0,613,224,4205,-9232,-3480,701,-32477,31297,-32145,0,0,0
2842.22,0,521,688,4172,-9809,-3364,1404,-32505,31359,-32115,0,0,0
2842.25,0,697,139,4275,-9897,-3653,2121,-32533,31430,-32087,0,0,0
2842.25,0,805,-659,3944,-10060,-2913,2537,-32566,31502,-32060,0,0,0
2842.28,0,921,-1466,4065,-10408,-1830,2101,-32589,31571,-32038,0,0,0
2842.28,0,940,-1255,4070,-11565,-856,1879,-32607,31650,-32023,0,0,0
2842.31,0,1041,-1710,4058,-11533,1236,2062,-32615,31736,-32016,0,0,0
2842.31,0,465,-1829,3001,-11267,1611,1576,-32611,31824,-32017,0,0,0
2842.34,0,823,-1969,3411,-11478,2126,1209,-32598,31911,-32026,0,0,0
2842.34,0,910,-1683,3755,-12132,1730,1216,-32583,31999,-32037,0,0,0
2842.37,0,741,-1994,3733,-12074,1511,1085,-32569,32094,-32053,0,0,0
2842.37,0,684,-1800,3378,-12389,2582,661,-32556,32189,-32079,0,0,0
2842.4,0,489,-1673,2871,-13396,3622,297,-32536,32284,-32111,0,0,0
2842.4,0,170,-2246,2932,-14208,3597,226,-32511,32388,-32152,0,0,0
2842.43,0,82,-2880,2827,-15831,3616,506,-32484,32494,-32203,0,0,0
2842.43,0,-336,-3188,2515,-16380,3074,729,-32461,32606,-32267,0,0,0
2842.46,0,214,-3115,1902,-16878,3822,437,-32437,32714,-32339,0,0,0
2842.46,0,466,-3160,1370,-16186,4439,767,-32411,-32713,-32422,0,0,0
2842.49,0,247,-3510,617,-14256,4196,800,-32382,-32615,-32513,0,0,0
2842.49,0,342,-3955,586,-12074,4687,860,-32355,-32536,-32601,0,0,0
2842.52,0,194,-4055,965,-10779,5018,1099,-32327,-32477,-32684,0,0,0
2842.52,0,-70,-4053,755,-9414,3762,1238,-32297,-32428,-32766,0,0,0
2842.55,0,55,-4095,546,-7636,2313,1285,-32275,-32386,32704,0,0,0
2842.55,0,150,-4325,422,-5767,1532,1460,-32259,-32359,32648,0,0,0
2842.58,0,151,-4668,68,-3274,926,1659,-32245,-32341,32608,0,0,0
2842.58,0,165,-5106,-639,621,570,2224,-32230,-32337,32584,0,0,0
2842.61,0,-96,-5143,-299,3355,2947,2186,-32211,-32351,32582,0,0,0
2842.61,0,-441,-5038,694,5002,3012,2213,-32189,-32375,32590,0,0,0
2842.64,0,-553,-4632,1332,5574,2423,1979,-32166,-32406,32602,0,0,0
2842.64,0,-682,-4036,1377,5272,1087,2000,-32146,-32434,32621,0,0,0
2842.67,0,-440,-3977,1623,4003,-396,1869,-32130,-32466,32644,0,0,0
2842.67,0,-452,-3801,1801,2706,-1162,1484,-32120,-32493,32667,0,0,0
2842.7,0,-457,-3939,1578,1675,-1569,1339,-32115,-32512,32686,0,0,0
2842.7,0,-333,-4051,1373,1754,-1604,1460,-32114,-32529,32703,0,0,0
2842.73,0,-524,-4242,1173,2650,-437,1605,-32112,-32543,32720,0,0,0
2842.73,0,-527,-4170,1464,3143,575,1791,-32106,-32564,32736,0,0,0
2842.76,0,-760,-4148,1879,3506,1404,2330,-32093,-32590,32748,0,0,0
2842.79,0,-692,-3841,1899,2839,904,2070,-32078,-32618,32759,0,0,0
2842.79,0,-752,-4005,2072,1646,25,1850,-32065,-32641,32766,0,0,0
2842.8,0,-671,-4101,1920,1161,-276,1526,-32057,-32660,-32765,0,0,0
2842.82,0,-735,-4130,1893,1113,92,1268,-32049,-32676,-32757,0,0,0
2842.83,0,-779,-4130,1827,1411,433,979,-32044,-32690,-32753,0,0,0
2842.85,0,-903,-4221,1998,1698,312,508,-32039,-32704,-32749,0,0,0
2842.86,0,-1184,-4403,1938,2483,205,369,-32035,-32714,-32743,0,0,0
2842.88,0,-1258,-4546,1865,3839,203,379,-32033,-32729,-32732,0,0,0
2842.89,0,-1217,-4641,1708,4943,-899,126,-32032,-32751,-32716,0,0,0
2842.91,0,-928,-4505,1886,5949,-2027,120,-32035,32757,-32691,0,0,0
2842.92,0,-700,-4182,2028,7270,-2365,-7,-32046,32728,-32656,0,0,0
2842.94,0,-872,-3870,2678,8725,-3002,-188,-32059,32687,-32617,0,0,0
2842.95,0,-928,-3777,2489,9835,-2763,-285,-32076,32639,-32570,0,0,0
2842.97,0,-1120,-3679,2620,11265,-2953,-5,-32091,32582,-32520,0,0,0
2842.98,0,-1080,-3495,2514,12820,-2931,150,-32108,32515,-32467,0,0,0
2843,0,-449,-2967,3072,13728,-2775,282,-32126,32433,-32416,0,0,0
2843.01,0,-356,-2654,4052,15355,-3648,447,-32145,32344,-32365,0,0,0
2843.03,0,-360,-1260,3561,15407,-4465,1385,-32165,32238,-32316,0,0,0
2843.04,0,-557,-1314,4101,15620,-5042,1996,-32194,32123,-32267,0,0,0
2843.06,0,-383,-1094,3654,13552,-5758,1855,-32227,32006,-32229,0,0,0
2843.07,0,826,900,3540,10907,-7008,1994,-32266,31899,-32191,0,0,0
2843.09,0,1110,-81,1798,6146,-7249,1890,-32316,31813,-32160,0,0,0
2843.1,0,1336,-374,1556,2674,-4755,902,-32367,31760,-32130,0,0,0
2843.12,0,820,-1051,1902,2521,-2000,409,-32403,31734,-32113,0,0,0
2843.13,0,257,-1397,2992,4019,100,96,-32418,31712,-32110,0,0,0
2843.15,0,109,-1724,3531,5928,770,-618,-32416,31681,-32112,0,0,0
2843.16,0,120,-1719,3448,6644,568,-431,-32411,31640,-32116,0,0,0
2843.18,0,178,-1865,2732,7537,2081,-478,-32406,31592,-32121,0,0,0
2843.19,0,-75,-1890,2653,7561,4301,-499,-32388,31538,-32135,0,0,0
2843.21,0,86,-1090,3733,6495,5811,-673,-32356,31488,-32161,0,0,0
2843.22,0,-740,-775,4813,5973,5628,-481,-32313,31443,-32194,0,0,0
2843.24,0,-780,-771,5094,5175,4379,-129,-32273,31406,-32225,0,0,0
2843.25,0,-834,-868,5392,5216,2342,62,-32242,31370,-32256,0,0,0
2843.27,0,-927,-471,5127,4903,-35,-375,-32226,31334,-32276,0,0,0
2843.28,0,-128,531,4988,1092,-1552,-1837,-32226,31305,-32284,0,0,0
2843.3,0,-202,173,4810,-1694,-3153,-2597,-32230,31305,-32281,0,0,0
2843.31,0,44,-796,4293,-2633,-3587,-3191,-32245,31330,-32262,0,0,0
2843.33,0,395,-1572,3610,-1835,-3182,-3572,-32259,31360,-32245,0,0,0
2843.34,0,774,-1604,3266,248,-1988,-3227,-32277,31389,-32230,0,0,0
2843.36,0,848,-1227,3345,2554,-1040,-2281,-32283,31401,-32221,0,0,0
2843.39,0,634,-817,4052,4914,-1104,-1074,-32285,31391,-32221,0,0,0
2843.39,0,437,-445,4283,6522,-2038,-298,-32291,31364,-32224,0,0,0
2843.42,0,-38,-145,4755,7638,-3425,174,-32306,31320,-32229,0,0,0
2843.42,0,134,-461,4000,8647,-4312,235,-32326,31269,-32235,0,0,0
2843.45,0,159,-488,3589,9153,-4605,-193,-32355,31210,-32235,0,0,0
2843.45,0,-11,-380,4198,9596,-4787,-480,-32388,31147,-32245,0,0,0
2843.48,0,-364,501,4808,11307,-7361,-411,-32416,31082,-32254,0,0,0
2843.48,0,-54,1094,4770,11088,-10349,-456,-32464,31010,-32268,0,0,0
2843.51,0,195,1443,3953,11312,-13052,-142,-32530,30937,-32271,0,0,0
2843.51,0,26,1790,3492,11315,-15083,-156,-32613,30865,-32277,0,0,0
2843.54,0,-220,2129,2691,10355,-16686,-1197,-32712,30793,-32291,0,0,0
2843.54,0,767,2145,2405,6661,-13844,-1117,32725,30730,-32303,0,0,0
2843.57,0,1912,1318,2486,3971,-6258,-1379,32645,30690,-32314,0,0,0
2843.57,0,2545,2918,2006,1081,1181,-1314,32614,30669,-32324,0,0,0
2843.6,0,1727,3346,2894,-2343,6720,231,32626,30662,-32333,0,0,0
2843.6,0,1451,2552,3247,-5495,10087,1305,32664,30678,-32332,0,0,0
2843.63,0,1197,1874,3834,-6446,12429,833,32722,30708,-32319,0,0,0
2843.63,0,766,1449,4372,-5091,14064,442,-32740,30743,-32313,0,0,0
2843.66,0,343,1162,4604,-3566,14771,330,-32653,30773,-32324,0,0,0
2843.66,0,-54,1094,4808,-2442,14400,129,-32562,30796,-32347,0,0,0
2843.69,0,-29,970,4942,-1264,12674,52,-32475,30812,-32384,0,0,0
2843.69,0,-181,876,4816,-1061,10235,167,-32402,30820,-32421,0,0,0
2843.72,0,444,524,4635,-2883,7033,-769,-32346,30827,-32458,0,0,0
2843.72,0,115,522,4246,-5094,3887,-2153,-32303,30849,-32475,0,0,0
2843.75,0,-144,1048,4313,-5764,2640,-2402,-32275,30884,-32474,0,0,0
2843.75,0,-510,1646,4757,-5232,2089,-1638,-32249,30928,-32462,0,0,0
2843.78,0,-541,1085,4782,-4283,1363,-638,-32232,30964,-32455,0,0,0
2843.78,0,-369,606,4386,-4090,219,-471,-32223,30993,-32446,0,0,0
2843.81,0,-153,281,4155,-4363,-843,-1152,-32221,31020,-32432,0,0,0
2843.81,0,-128,-182,4090,-3671,-1597,-1791,-32224,31051,-32413,0,0,0
2843.84,0,-187,19,4234,-3109,-2049,-2682,-32230,31080,-32399,0,0,0
2843.84,0,48,766,4039,-3706,-1421,-3132,-32232,31110,-32381,0,0,0
2843.87,0,-294,1136,4344,-4037,79,-3026,-32233,31146,-32365,0,0,0
2843.87,0,-235,890,3917,-2443,1530,-2851,-32223,31182,-32354,0,0,0
2843.9,0,-102,730,4224,-1837,2194,-2621,-32209,31211,-32357,0,0,0
2843.9,0,-79,494,4102,-1663,2015,-2644,-32190,31236,-32360,0,0,0
2843.93,0,-381,479,4294,-830,1706,-2665,-32170,31260,-32367,0,0,0
2843.93,0,-480,314,4081,-356,1809,-2223,-32155,31275,-32372,0,0,0
2843.96,0,-585,-340,4532,-966,408,-2674,-32139,31292,-32381,0,0,0
2843.96,0,-589,-382,3308,-1951,-577,-3351,-32131,31311,-32379,0,0,0
2843.99,0,-316,-678,3861,-2961,-882,-4078,-32125,31341,-32371,0,0,0
2843.99,0,-256,-52,4296,-4125,-2066,-4797,-32125,31379,-32362,0,0,0
2844.02,0,-658,-29,4414,-4016,-3365,-4679,-32130,31427,-32346,0,0,0
2844.03,0,-342,-282,4290,-3212,-3865,-4304,-32142,31476,-32322,0,0,0
2844.05,0,-34,-592,3736,-2685,-3703,-3955,-32161,31519,-32301,0,0,0
2844.06,0,211,-892,3312,-2620,-2989,-4204,-32181,31555,-32281,0,0,0
2844.08,0,179,-631,3523,-2598,-2272,-4122,-32197,31593,-32265,0,0,0
2844.09,0,208,-157,3716,-1407,-1214,-3220,-32209,31627,-32251,0,0,0
2844.11,0,358,287,3940,44,-243,-1675,-32216,31652,-32244,0,0,0
2844.12,0,207,3,4050,1407,-116,-187,-32216,31659,-32244,0,0,0
2844.14,0,299,-232,3710,1602,460,269,-32217,31652,-32244,0,0,0
2844.15,0,25,-630,3936,1267,1046,-55,-32213,31638,-32247,0,0,0
2844.17,0,-381,-614,4385,1582,912,-533,-32207,31629,-32252,0,0,0
2844.18,0,-979,1254,5098,6213,-1456,2566,-32202,31608,-32256,0,0,0
2844.2,0,261,-1308,3527,3089,-1793,1320,-32214,31564,-32254,0,0,0
2844.21,0,957,-538,3104,732,-1545,-1083,-32225,31534,-32252,0,0,0
2844.23,0,759,408,3537,-1188,-596,-1999,-32235,31533,-32244,0,0,0
2844.24,0,476,960,3962,-1610,139,-1054,-32236,31550,-32240,0,0,0
2844.26,0,392,741,3946,-1259,538,275,-32237,31563,-32240,0,0,0
2844.27,0,408,742,4034,-629,948,1601,-32231,31570,-32242,0,0,0
2844.29,0,179,519,4331,477,867,2771,-32225,31568,-32243,0,0,0
2844.3,0,31,145,4517,1449,137,3604,-32224,31557,-32245,0,0,0
2844.32,0,21,-73,4463,2283,-839,3976,-32226,31530,-32250,0,0,0
2844.33,0,28,-41,4340,2745,-1181,4258,-32235,31496,-32253,0,0,0
2844.35,0,289,40,4036,2237,-1025,4212,-32248,31464,-32247,0,0,0
2844.36,0,568,254,3860,977,-742,3783,-32262,31430,-32246,0,0,0
2844.38,0,592,688,4040,-51,-110,4058,-32272,31408,-32244,0,0,0
2844.39,0,454,398,4142,7,489,4736,-32279,31390,-32243,0,0,0
2844.41,0,73,191,3985,-604,845,5213,-32285,31374,-32246,0,0,0
2844.42,0,-154,-354,4484,-1085,1040,5714,-32289,31357,-32246,0,0,0
2844.44,0,-559,-536,4763,-577,745,6147,-32292,31339,-32250,0,0,0
2844.45,0,-774,-942,5081,952,-59,6833,-32298,31319,-32250,0,0,0
2844.47,0,-628,-500,4261,1036,-733,7614,-32314,31285,-32252,0,0,0
2844.48,0,163,-211,3564,-513,-1098,8212,-32337,31248,-32253,0,0,0
2844.5,0,792,155,3323,-2241,-938,9663,-32366,31221,-32243,0,0,0
2844.51,0,-12,522,2728,-298,-673,13077,-32398,31196,-32232,0,0,0
2844.53,0,-502,-245,2158,3254,1494,14669,-32437,31151,-32228,0,0,0
2844.54,0,-499,13,4850,-1271,1058,14022,-32473,31087,-32241,0,0,0
2844.56,0,-2089,-4308,5774,142,1937,10620,-32509,31032,-32244,0,0,0
2844.57,0,-1184,-2242,4203,-4004,362,9363,-32539,31011,-32245,0,0,0
2844.59,0,-1047,1815,4656,-3063,1574,11298,-32570,31008,-32232,0,0,0
2844.6,0,-470,2603,4681,-573,923,15940,-32604,30995,-32225,0,0,0
2844.62,0,-769,581,4392,3595,-876,18565,-32655,30953,-32226,0,0,0
2844.63,0,-1010,-327,4789,9914,-1654,20161,-32733,30882,-32235,0,0,0
2844.65,0,-719,-790,2547,10769,1246,20136,32707,30780,-32274,0,0,0
2844.68,0,1404,-613,2523,5386,3502,17244,32615,30689,-32323,0,0,0
2844.68,0,-1119,-590,3136,-1172,4171,14044,32548,30639,-32354,0,0,0
2844.71,0,-815,-1625,6281,-3981,1662,10729,32497,30633,-32353,0,0,0
2844.71,0,-198,-2011,6167,-1633,-1365,8180,32448,30646,-32336,0,0,0
2844.74,0,232,-1918,4898,-395,-1093,5465,32396,30657,-32326,0,0,0
2844.74,0,1192,-357,4346,-140,231,4042,32360,30656,-32324,0,0,0
2844.77,0,1475,-54,4296,-384,241,2573,32338,30659,-32321,0,0,0
2844.77,0,1381,283,4018,-1432,-596,1236,32325,30666,-32318,0,0,0
2844.8,0,1405,342,3876,-1353,-691,540,32315,30672,-32316,0,0,0
2844.8,0,1132,118,3286,-403,121,215,32309,30682,-32305,0,0,0
2844.83,0,907,-216,3361,-669,1362,-878,32309,30685,-32303,0,0,0
2844.83,0,348,-281,4005,-1191,2194,-2160,32323,30691,-32301,0,0,0
2844.86,0,61,-374,5097,-416,2006,-3162,32350,30696,-32293,0,0,0
2844.86,0,-540,-459,5309,562,1957,-4277,32379,30699,-32291,0,0,0
2844.89,0,-897,-760,5442,1221,1456,-6002,32415,30697,-32295,0,0,0
2844.89,0,-1395,-181,5026,598,1156,-7792,32454,30693,-32301,0,0,0
2844.92,0,-711,-110,5039,1239,762,-9171,32501,30693,-32305,0,0,0
2844.92,0,146,-539,4264,3858,206,-10543,32552,30692,-32311,0,0,0
2844.95,0,352,-918,3738,6998,-626,-12512,32608,30678,-32330,0,0,0
2844.95,0,85,-756,3193,9245,-2200,-14570,32668,30655,-32361,0,0,0
2844.98,0,-1204,-548,3365,10446,-2519,-16433,32733,30624,-32406,0,0,0
2844.98,0,-1650,301,3988,9252,-3677,-18805,-32727,30600,-32454,0,0,0
2845.01,0,-1548,3014,1947,5998,-5856,-18659,-32645,30591,-32494,0,0,0
2845.01,0,-652,1500,3273,2688,-5202,-19090,-32573,30611,-32511,0,0,0
2845.04,0,-385,1406,3574,1453,-7175,-20774,-32500,30653,-32508,0,0,0
2845.04,0,-1015,1200,3024,-1488,-8364,-23413,-32434,30719,-32495,0,0,0
2845.07,0,-580,2061,1760,-5862,-7863,-26718,-32369,30815,-32458,0,0,0
2845.07,0,-34,2805,1373,-12047,-4708,-27978,-32303,30956,-32409,0,0,0
2845.1,0,-794,2291,3780,-10917,-1454,-24289,-32238,31143,-32355,0,0,0
2845.1,0,-1316,1472,5750,-4185,-1260,-18780,-32188,31324,-32326,0,0,0
2845.13,0,1548,-1158,5198,290,-601,-16659,-32162,31456,-32316,0,0,0
2845.13,0,841,-1912,3040,2480,2815,-15797,-32140,31541,-32316,0,0,0
2845.16,0,2631,-908,3764,5379,6768,-17259,-32106,31609,-32334,0,0,0
2845.16,0,2949,4631,3077,9860,10431,-23281,-32047,31672,-32376,0,0,0
2845.19,0,-8414,-5139,3362,4428,11122,-10036,-31972,31739,-32443,0,0,0
2845.19,0,-1406,253,5098,4574,1512,-4299,-31915,31783,-32500,0,0,0
2845.22,0,-926,908,5221,3603,-3557,-2402,-31904,31787,-32514,0,0,0
2845.22,0,-2245,1225,4468,1103,-7533,-753,-31924,31784,-32494,0,0,0
2845.25,0,-1004,1488,4516,385,-8617,-991,-31964,31784,-32454,0,0,0
2845.25,0,-554,564,4237,-240,-6991,-348,-32014,31785,-32406,0,0,0
2845.28,0,247,12,4570,-504,-4956,-1844,-32056,31788,-32369,0,0,0
2845.29,0,245,-400,4767,-1204,-3934,-2301,-32086,31802,-32343,0,0,0
2845.31,0,546,80,4728,-1201,-3680,-1965,-32113,31821,-32322,0,0,0
2845.32,0,191,712,4481,-1348,-4776,-1734,-32137,31841,-32305,0,0,0
2845.34,0,282,570,4464,-1244,-6364,-1292,-32168,31858,-32284,0,0,0
2845.35,0,-159,649,4410,-533,-5164,-217,-32207,31873,-32256,0,0,0
2845.37,0,-416,584,4240,-420,-6324,2407,-32241,31878,-32234,0,0,0
2845.38,0,1,240,4139,-291,-7765,5006,-32285,31869,-32206,0,0,0
2845.4,0,426,239,4324,88,-6664,6477,-32335,31850,-32176,0,0,0
2845.41,0,550,96,4290,869,-5322,6418,-32382,31824,-32148,0,0,0
2845.43,0,749,559,4352,1321,-3555,7126,-32423,31792,-32127,0,0,0
2845.44,0,986,234,4375,772,-712,6917,-32448,31757,-32115,0,0,0
2845.46,0,-9,363,4134,593,756,7283,-32456,31725,-32112,0,0,0
2845.47,0,95,246,4244,697,610,8944,-32455,31695,-32112,0,0,0
2845.49,0,488,254,4388,850,1663,10705,-32454,31659,-32117,0,0,0
2845.5,0,108,178,4614,-7,2448,12714,-32451,31612,-32122,0,0,0
2845.52,0,321,-743,5248,793,2225,15342,-32444,31564,-32127,0,0,0
2845.53,0,-412,-191,4916,945,1421,17164,-32448,31507,-32133,0,0,0
2845.55,0,-651,33,4639,1830,1168,19920,-32463,31436,-32138,0,0,0
2845.56,0,403,-421,4209,2941,3990,22933,-32490,31353,-32144,0,0,0
2845.58,0,-961,-402,2960,4226,907,23713,-32516,31256,-32159,0,0,0
2845.59,0,327,139,3319,5486,98,26797,-32569,31147,-32175,0,0,0
2845.61,0,3689,-121,3803,8020,1916,28891,-32653,31034,-32194,0,0,0
2845.62,0,2606,-314,2794,8534,6426,28184,-32745,30914,-32223,0,0,0
2845.64,0,1489,-50,2552,4737,9547,26091,32711,30803,-32266,0,0,0
2845.65,0,1194,192,3363,1570,11230,24951,32649,30730,-32300,0,0,0
2845.67,0,838,-266,4228,-728,12714,20162,32596,30689,-32324,0,0,0
2845.68,0,231,-237,4816,-6178,12996,17769,32572,30673,-32332,0,0,0
2845.7,0,-928,-331,5363,-8070,8161,14411,32563,30686,-32313,0,0,0
2845.71,0,-1638,31,4804,-7934,1337,12113,32542,30725,-32282,0,0,0
2845.73,0,-1270,-164,4386,-5804,-4811,11401,32493,30770,-32249,0,0,0
2845.74,0,-1424,-538,4110,-2283,-8737,10904,32407,30805,-32219,0,0,0
2845.76,0,-38,-944,3219,-340,-8825,8909,32300,30822,-32209,0,0,0
2845.77,0,51,-1603,2315,862,-6344,5276,32200,30832,-32211,0,0,0
2845.79,0,1008,-1020,2286,1030,-1303,1949,32136,30833,-32218,0,0,0
2845.8,0,739,-525,3641,1348,733,473,32113,30831,-32222,0,0,0
2845.82,0,1214,-136,4052,1572,-50,-334,32115,30821,-32228,0,0,0
2845.83,0,1243,195,4438,1122,-1050,-1148,32115,30811,-32236,0,0,0
2845.85,0,1015,279,4621,1293,-1499,-2183,32115,30802,-32242,0,0,0
2845.86,0,618,430,4603,824,-1753,-3565,32114,30793,-32250,0,0,0
2845.88,0,352,537,4563,64,-1814,-5277,32121,30783,-32253,0,0,0
2845.89,0,284,498,4310,-881,-1699,-7657,32132,30778,-32255,0,0,0
2845.91,0,243,276,4094,-2024,-351,-10976,32157,30776,-32253,0,0,0
2845.94,0,1359,114,3347,-3179,3069,-14934,32210,30780,-32244,0,0,0
2845.94,0,1614,-322,4136,-2566,8592,-19160,32300,30792,-32231,0,0,0
2845.97,0,928,537,4272,-2220,11157,-21718,32443,30809,-32220,0,0,0
2845.97,0,-91,64,4688,-1703,11673,-24655,32614,30837,-32221,0,0,0
2846,0,-791,-518,4988,-28,11205,-27192,-32738,30890,-32236,0,0,0
2846,0,-500,-949,3376,-1017,11054,-31073,-32554,30964,-32264,0,0,0
2846.03,0,425,-1242,2432,-1004,11666,-32764,-32372,31080,-32303,0,0,0
2846.03,0,2099,724,1056,-5311,7870,-32764,-32198,31240,-32350,0,0,0
2846.06,0,1787,-549,3636,-6893,1206,-32058,-32073,31454,-32382,0,0,0
2846.06,0,533,-3233,3625,-3481,-2670,-26961,-32028,31671,-32388,0,0,0
2846.09,0,-430,-2297,2994,-752,-3112,-22447,-32034,31847,-32380,0,0,0
2846.09,0,-19,-1130,2715,2074,-2364,-20370,-32064,31980,-32367,0,0,0
2846.12,0,-2102,-218,3725,4009,-3618,-17658,-32100,32077,-32354,0,0,0
2846.12,0,-2519,-568,4031,4378,-6048,-13203,-32146,32144,-32336,0,0,0
2846.15,0,-960,-82,4442,4164,-7456,-9673,-32205,32182,-32304,0,0,0
2846.15,0,436,338,4801,1979,-8014,-6657,-32270,32201,-32268,0,0,0
2846.19,0,194,-148,4860,607,-6385,-5448,-32334,32219,-32230,0,0,0
2846.19,0,78,-377,4553,753,-4159,-5817,-32386,32240,-32208,0,0,0
2846.21,0,694,-1007,4808,1701,-4128,-5941,-32430,32259,-32189,0,0,0
2846.21,0,787,-1526,4669,1617,-2946,-5413,-32471,32273,-32175,0,0,0
2846.24,0,1011,-1647,4910,1160,-2160,-3892,-32502,32282,-32162,0,0,0
2846.24,0,1163,-1015,4582,532,-2106,-3392,-32530,32290,-32153,0,0,0
2846.27,0,1219,-908,4181,697,-1906,-2827,-32550,32298,-32144,0,0,0
2846.27,0,1296,-650,3954,1812,-2299,-1431,-32570,32302,-32136,0,0,0
2846.3,0,1522,-1394,4028,3244,-2319,888,-32592,32293,-32125,0,0,0
2846.3,0,1258,-1262,4362,4179,-1059,2247,-32607,32269,-32111,0,0,0
2846.33,0,1242,-996,4613,3741,210,3315,-32609,32230,-32101,0,0,0
2846.33,0,1122,-1198,4772,3330,1880,5073,-32602,32191,-32092,0,0,0
2846.36,0,1358,-1160,4285,3463,2104,5262,-32579,32153,-32092,0,0,0
2846.36,0,921,-413,4220,3851,174,4792,-32556,32110,-32090,0,0,0
2846.39,0,603,-596,4399,3877,-1530,4352,-32549,32066,-32088,0,0,0
2846.39,0,797,-731,4430,3173,-1853,4374,-32556,32023,-32079,0,0,0
2846.42,0,527,-946,4402,3425,-2347,5635,-32567,31984,-32069,0,0,0
2846.42,0,333,-539,4806,3592,-2375,6418,-32580,31941,-32058,0,0,0
2846.45,0,182,-190,4978,3220,-1897,7798,-32593,31892,-32050,0,0,0
2846.45,0,-66,-186,5038,3959,-1020,9440,-32608,31843,-32043,0,0,0
2846.48,0,743,303,4750,4533,2091,8442,-32612,31784,-32037,0,0,0
2846.48,0,502,409,4636,3815,4978,6108,-32598,31727,-32045,0,0,0
2846.51,0,799,-207,4433,3493,6144,5230,-32566,31677,-32057,0,0,0
2846.51,0,1497,-656,4411,3716,6316,6735,-32523,31632,-32078,0,0,0
2846.54,0,1943,-600,3742,2201,5373,7458,-32482,31581,-32097,0,0,0
2846.54,0,1309,-619,3737,568,3682,6736,-32450,31538,-32119,0,0,0
2846.57,0,948,-553,3812,-121,1949,6322,-32434,31508,-32128,0,0,0
2846.58,0,482,-209,4106,-498,774,6971,-32427,31487,-32136,0,0,0
2846.6,0,346,-776,4194,173,-683,9531,-32433,31463,-32137,0,0,0
2846.61,0,386,-161,4135,1197,-465,10755,-32450,31429,-32134,0,0,0
2846.63,0,128,-90,3906,1631,373,10222,-32473,31381,-32132,0,0,0
2846.64,0,296,-110,4356,2459,1295,8818,-32491,31334,-32136,0,0,0
2846.66,0,197,193,3794,3205,2532,8024,-32501,31286,-32147,0,0,0
2846.67,0,398,124,4194,4517,4134,8762,-32502,31235,-32160,0,0,0
2846.69,0,289,128,4560,6811,6266,9657,-32496,31174,-32185,0,0,0
2846.7,0,39,474,4833,10644,8701,10194,-32482,31093,-32223,0,0,0
2846.73,0,426,359,4688,15768,10300,10584,-32460,30987,-32286,0,0,0
2846.75,0,385,823,3948,17362,15695,8694,-32433,30856,-32382,0,0,0
2846.75,0,692,1885,2124,16072,11101,4954,-32387,30725,-32506,0,0,0
2846.76,0,967,1272,2819,7573,13756,-125,-32353,30629,-32623,0,0,0
2846.78,0,-988,-735,6088,2137,9119,-1815,-32301,30591,-32712,0,0,0
2846.79,0,-730,1326,3060,-802,3435,-974,-32253,30590,-32763,0,0,0
2846.81,0,60,1862,2517,-6160,-1793,-3786,-32231,30598,32764,0,0,0
2846.82,0,-44,2395,2339,-11504,-3557,-6304,-32218,30638,-32736,0,0,0
2846.84,0,52,1524,1658,-15198,-3525,-8725,-32201,30717,-32663,0,0,0
2846.85,0,-789,91,4219,-12470,-1949,-7668,-32177,30825,-32581,0,0,0
2846.87,0,-1598,-1031,7005,-4720,3132,-3555,-32158,30932,-32525,0,0,0
2846.88,0,-1492,873,4031,-1402,5181,-1259,-32127,30978,-32517,0,0,0
2846.9,0,-1355,1135,4019,-1900,4821,-1076,-32097,30993,-32536,0,0,0
2846.91,0,-316,815,4168,-3842,6279,-2601,-32065,31013,-32555,0,0,0
2846.93,0,-2036,86,2871,-7768,6636,-2428,-32023,31046,-32573,0,0,0
2846.94,0,-2194,-486,3418,-5380,2711,-3467,-31981,31097,-32585,0,0,0
2846.96,0,-1386,-765,3852,-5655,2075,-3097,-31956,31144,-32587,0,0,0
2846.97,0,-1043,-631,3880,-6132,3349,-2600,-31936,31195,-32586,0,0,0
2846.99,0,-1298,413,3605,-6175,4598,-4808,-31910,31244,-32591,0,0,0
2847,0,-662,-1956,3742,-3974,8030,-6986,-31874,31307,-32609,0,0,0
2847.02,0,-2386,-722,3693,989,12124,-7129,-31822,31371,-32652,0,0,0
2847.03,0,-2077,-1134,4230,3437,12821,-6226,-31748,31416,-32733,0,0,0
2847.05,0,-1985,-720,4898,3616,9664,-4087,-31687,31445,32709,0,0,0
2847.06,0,-2446,-2840,3393,3984,9290,-4589,-31642,31466,32635,0,0,0
2847.08,0,-3053,-2760,3569,5863,7230,-6220,-31605,31491,32561,0,0,0
2847.09,0,-3013,-1719,3445,5127,5324,-9058,-31573,31524,32500,0,0,0
2847.11,0,-2764,-521,2925,5018,3048,-9969,-31546,31579,32452,0,0,0
2847.12,0,-1922,-1326,2869,4233,3368,-13643,-31528,31650,32420,0,0,0
2847.14,0,-2475,-1002,2445,3353,5551,-18549,-31512,31750,32388,0,0,0
2847.15,0,-4018,425,2942,1195,6234,-18003,-31500,31891,32341,0,0,0
2847.17,0,-3121,-283,3545,-332,5433,-17157,-31498,32038,32290,0,0,0
2847.18,0,-1069,-1092,3377,-643,4762,-21443,-31509,32182,32246,0,0,0
2847.2,0,-478,-1672,2857,-976,6373,-27656,-31544,32360,32200,0,0,0
2847.23,0,-869,-1552,1857,-2574,9148,-32764,-31612,32583,32145,0,0,0
2847.23,0,-3978,-1874,2511,-2754,8734,-32764,-31732,-32703,32070,0,0,0
2847.26,0,-3452,-1783,2749,-2348,4256,-32764,-31894,-32461,31999,0,0,0
2847.26,0,-2232,-2046,2619,-1599,341,-32411,-32092,-32254,31956,0,0,0
2847.29,0,-1225,-2324,2421,-1100,-1544,-30416,-32311,-32091,31940,0,0,0
2847.29,0,-632,-2943,2578,-1122,-2584,-27156,-32532,-31971,31937,0,0,0
2847.32,0,-223,-3350,2863,-854,-4271,-22136,-32740,-31890,31931,0,0,0
2847.32,0,-521,-3511,2915,43,-6822,-14437,32619,-31845,31929,0,0,0
2847.35,0,-227,-3285,2599,1646,-9056,-5087,32499,-31827,31936,0,0,0
2847.35,0,606,-3798,2567,3171,-9050,5495,32452,-31823,31957,0,0,0
2847.38,0,18,-3980,2560,5351,-8614,16447,32492,-31832,31990,0,0,0
2847.38,0,-127,-4484,2430,7353,-7568,24714,32615,-31858,32038,0,0,0
2847.41,0,284,-4703,2637,8396,-3977,30354,-32735,-31916,32105,0,0,0
2847.41,0,773,-4407,2682,9773,-2043,32764,-32512,-32020,32182,0,0,0
2847.44,0,391,-4113,2708,11450,-443,32764,-32268,-32184,32255,0,0,0
2847.44,0,118,-3316,2695,12661,249,32764,-32026,-32419,32328,0,0,0
2847.47,0,-406,-2500,2570,12985,1335,32764,-31813,-32724,32397,0,0,0
2847.47,0,-386,-1942,2573,12173,2410,32764,-31645,32454,32437,0,0,0
2847.5,0,-129,-1578,2802,11971,2946,32764,-31551,32067,32449,0,0,0
2847.5,0,-594,-1282,3058,11729,2651,32764,-31534,31680,32435,0,0,0
2847.54,0,-1362,-683,2612,11882,1035,32764,-31586,31328,32408,0,0,0
2847.54,0,-1309,568,2058,11647,948,32764,-31696,31013,32366,0,0,0
2847.56,0,-139,1060,2116,10781,2020,31930,-31847,30745,32316,0,0,0
2847.56,0,-1166,2049,3270,10122,-126,26418,-32013,30536,32256,0,0,0
2847.59,0,-1497,3397,2462,8785,-2648,21133,-32175,30384,32196,0,0,0
2847.59,0,-397,4116,2557,6478,-1690,12158,-32322,30284,32150,0,0,0
2847.62,0,185,4480,3094,4225,426,-1354,-32408,30232,32111,0,0,0
2847.62,0,-78,4425,2995,1663,3012,-17814,-32395,30236,32082,0,0,0
2847.65,0,-489,3241,2481,-584,6856,-32419,-32271,30305,32057,0,0,0
2847.65,0,-2795,1843,3173,-2046,7507,-32764,-32057,30463,32022,0,0,0
2847.68,0,-3691,803,2171,-2993,6984,-32764,-31815,30719,31989,0,0,0
2847.68,0,-3099,-1388,745,-2995,11074,-32764,-31613,31057,31941,0,0,0
2847.71,0,-4113,-2638,992,307,14755,-32764,-31484,31444,31860,0,0,0
2847.71,0,-7002,-2772,2604,3778,8958,-32764,-31447,31856,31743,0,0,0
2847.74,0,-5977,41,2535,4745,837,-32764,-31497,32263,31672,0,0,0
2847.74,0,-5337,-2,3386,4021,-5836,-32764,-31611,32614,31670,0,0,0
2847.77,0,-2681,328,1774,2775,-7775,-32764,-31762,-32627,31715,0,0,0
2847.77,0,-1416,-519,1784,1700,-6410,-32764,-31954,-32381,31772,0,0,0
2847.8,0,-1116,-1251,2329,772,-5037,-29697,-32164,-32187,31812,0,0,0
2847.8,0,-832,-2011,2680,9,-5311,-22098,-32365,-32048,31837,0,0,0
2847.83,0,-637,-2670,2768,-939,-4828,-10961,-32527,-31963,31856,0,0,0
2847.84,0,-749,-3582,2768,-1403,-4104,3290,-32610,-31928,31862,0,0,0
2847.86,0,-1411,-4317,2631,-1076,-2611,17803,-32586,-31941,31863,0,0,0
2847.87,0,-2097,-4636,2614,-69,-1697,29586,-32456,-32000,31862,0,0,0
2847.89,0,-2399,-4648,2521,1010,-1143,32764,-32245,-32129,31869,0,0,0
2847.9,0,-2591,-4209,2527,2222,-719,32764,-32002,-32332,31887,0,0,0
2847.92,0,-2534,-2975,2471,3136,200,32764,-31770,-32613,31905,0,0,0
2847.93,0,-1975,-2258,2603,3722,131,32764,-31586,32581,31922,0,0,0
2847.95,0,-1754,-1603,2997,4037,-213,32764,-31472,32202,31938,0,0,0
2847.96,0,-1605,-715,2878,4958,36,32764,-31439,31821,31948,0,0,0
2847.98,0,-1322,452,2581,5574,993,32764,-31475,31468,31950,0,0,0
2847.99,0,-1373,707,2354,5177,1613,32764,-31565,31162,31935,0,0,0
2848.01,0,-1493,2006,2336,4054,2622,30234,-31690,30908,31911,0,0,0
2848.02,0,-1047,1946,2595,3220,3194,24984,-31829,30701,31878,0,0,0
2848.04,0,-1835,2823,3080,2476,1770,19104,-31969,30550,31846,0,0,0
2848.05,0,-2307,3414,2165,1552,1268,14163,-32087,30444,31825,0,0,0
2848.07,0,-1986,3610,1945,584,2882,7663,-32178,30378,31808,0,0,0
2848.08,0,-2104,3046,2361,-288,3446,1516,-32233,30341,31792,0,0,0
2848.1,0,-2117,2790,2501,-589,3001,-1966,-32245,30335,31781,0,0,0
2848.11,0,-2236,2421,2015,-719,2325,-2289,-32238,30343,31772,0,0,0
2848.13,0,-2930,1903,1677,-77,1741,-2197,-32223,30352,31767,0,0,0
2848.14,0,-3687,2474,1676,1004,916,-4512,-32206,30362,31759,0,0,0
2848.16,0,-3967,3018,1758,1226,-593,-8269,-32179,30386,31748,0,0,0
2848.17,0,-2644,2544,2244,1224,-741,-17027,-32123,30429,31743,0,0,0
2848.19,0,-3262,2670,2386,506,-309,-25976,-32018,30520,31735,0,0,0
2848.2,0,-3077,1807,2181,-143,572,-32764,-31873,30675,31730,0,0,0
2848.22,0,-3388,893,1392,157,948,-32764,-31712,30903,31724,0,0,0
2848.23,0,-2659,944,-236,931,3487,-32764,-31568,31205,31706,0,0,0
2848.26,0,-2684,111,1474,1802,5983,-32764,-31481,31549,31673,0,0,0
2848.26,0,-2693,738,985,3894,7421,-32764,-31463,31890,31618,0,0,0
2848.28,0,-2205,879,-2184,7628,14192,-31054,-31504,32208,31553,0,0,0
2848.29,0,-3929,-477,1451,11466,13362,-28609,-31598,32484,31461,0,0,0
2848.31,0,-3393,-1023,716,13509,11992,-27954,-31723,32729,31395,0,0,0
2848.32,0,-5529,-1999,5672,6003,-4619,-29972,-31872,-32581,31379,0,0,0
2848.34,0,-2464,-1719,1723,2812,-8632,-28369,-32018,-32383,31421,0,0,0
2848.35,0,-1096,-2214,1540,301,-5435,-23199,-32174,-32226,31481,0,0,0
2848.37,0,-1403,-3709,2229,-1134,-2330,-16546,-32316,-32114,31506,0,0,0
2848.38,0,-2099,-4254,2185,-2697,-1186,-7341,-32428,-32048,31508,0,0,0
2848.4,0,-2883,-4638,1304,-3935,753,3794,-32479,-32024,31492,0,0,0
2848.41,0,-3825,-4414,1490,-4445,937,14351,-32453,-32045,31463,0,0,0
2848.43,0,-5107,-3814,1636,-5877,-489,24648,-32359,-32109,31427,0,0,0
2848.44,0,-4507,-4059,1342,-7065,-1297,32706,-32199,-32232,31393,0,0,0
2848.46,0,-4115,-3925,1105,-7902,-1776,32764,-32002,-32428,31365,0,0,0
2848.49,0,-3837,-3177,1209,-8026,-1569,32764,-31807,-32699,31346,0,0,0
2848.49,0,-3857,-2051,1718,-8130,-1602,32764,-31652,32512,31334,0,0,0
2848.52,0,-3865,-804,1696,-8133,-2559,32764,-31560,32163,31337,0,0,0
2848.52,0,-3847,-427,1333,-8601,-2439,32764,-31532,31791,31361,0,0,0
2848.55,0,-4661,109,1552,-10094,-2526,32764,-31579,31416,31396,0,0,0
2848.55,0,-4568,602,1135,-10486,-6159,32764,-31693,31060,31454,0,0,0
2848.58,0,-3058,444,1200,-8747,-6385,32764,-31866,30744,31542,0,0,0
2848.58,0,-2179,594,1506,-6872,-5391,32764,-32086,30487,31630,0,0,0
2848.61,0,-1074,829,1850,-4447,-4625,29860,-32321,30303,31702,0,0,0
2848.61,0,362,473,2045,-1295,-1934,19605,-32535,30192,31757,0,0,0
2848.64,0,-1328,4060,3262,1289,-2776,10717,-32683,30136,31772,0,0,0
2848.64,0,-1506,3891,543,748,-823,9113,32765,30110,31769,0,0,0
2848.67,0,-903,3732,2108,-1026,233,7185,32692,30097,31772,0,0,0
2848.67,0,-856,3428,2147,-766,-200,3945,32636,30086,31777,0,0,0
2848.7,0,-579,3646,1981,251,574,-113,32604,30079,31781,0,0,0
2848.7,0,148,3590,2151,883,2236,-5003,32605,30081,31780,0,0,0
2848.73,0,-403,3640,2269,2528,4003,-11848,32644,30088,31769,0,0,0
2848.73,0,-478,3408,1961,4290,5507,-18531,32732,30109,31745,0,0,0
2848.76,0,-1102,3110,1859,5535,6380,-25154,-32663,30152,31701,0,0,0
2848.76,0,-2149,2592,1838,6403,6230,-30482,-32484,30232,31639,0,0,0
2848.79,0,-2674,2327,1322,5625,5531,-32764,-32281,30361,31570,0,0,0
2848.79,0,-3656,2640,1182,3216,5266,-32764,-32068,30540,31505,0,0,0
2848.82,0,-3573,1994,1572,2670,6268,-32764,-31878,30766,31455,0,0,0
2848.82,0,-3206,942,1180,2335,5637,-32764,-31723,31032,31399,0,0,0
2848.85,0,-2566,-361,1301,2607,5558,-32764,-31614,31335,31345,0,0,0
2848.85,0,-3115,-1097,937,3935,5425,-32764,-31559,31673,31295,0,0,0
2848.88,0,-2983,-1912,997,4456,5207,-32764,-31572,32030,31250,0,0,0
2848.88,0,-3902,-2092,988,2932,4551,-32764,-31648,32368,31211,0,0,0
2848.91,0,-3328,-1728,660,660,3868,-29430,-31767,32646,31178,0,0,0
2848.91,0,-1809,-3026,777,-629,4619,-23473,-31893,-32686,31153,0,0,0
2848.94,0,-2136,-3971,859,-1258,4450,-17987,-32016,-32540,31121,0,0,0
2848.94,0,-2703,-4159,502,-1900,3565,-10011,-32126,-32445,31090,0,0,0
2848.97,0,-3408,-4218,168,-2930,2210,88,-32191,-32397,31062,0,0,0
2848.97,0,-4053,-4662,230,-3012,257,11669,-32201,-32409,31039,0,0,0
2849,0,-4409,-4675,-146,-2677,-2956,21812,-32139,-32479,31023,0,0,0
2849,0,-4029,-4618,-530,-2863,-4667,29895,-32025,-32612,31025,0,0,0
2849.03,0,-3733,-3729,214,-3414,-5338,32764,-31881,32730,31046,0,0,0
2849.03,0,-3416,-2767,265,-4224,-5544,32764,-31749,32477,31070,0,0,0
2849.06,0,-3148,-2162,160,-5091,-4667,32764,-31652,32166,31107,0,0,0
2849.06,0,-2432,-1396,447,-5812,-2989,32764,-31613,31813,31143,0,0,0
2849.09,0,-1541,-962,921,-6007,-903,32764,-31655,31445,31179,0,0,0
2849.09,0,-1348,278,1454,-5503,471,32764,-31778,31093,31209,0,0,0
2849.12,0,-1072,1377,1111,-5103,1589,32764,-31972,30791,31231,0,0,0
2849.13,0,-1664,3374,1563,-5262,2291,32764,-32205,30550,31256,0,0,0
2849.15,0,-1325,3875,1423,-5132,3224,32764,-32458,30375,31286,0,0,0
2849.16,0,-1449,4254,1589,-5283,3672,27290,-32706,30264,31313,0,0,0
2849.18,0,-1398,4791,1052,-4310,4039,21023,32617,30199,31349,0,0,0
2849.19,0,-1775,4247,1171,-2399,4010,11870,32447,30172,31377,0,0,0
2849.21,0,-1315,3944,918,340,2568,1435,32344,30164,31394,0,0,0
2849.22,0,-826,3481,830,3336,1946,-9339,32326,30165,31390,0,0,0
2849.24,0,-997,3366,757,6274,1982,-17818,32388,30173,31367,0,0,0
2849.25,0,-1755,3342,328,8749,2213,-24949,32520,30200,31318,0,0,0
2849.27,0,-2577,2871,171,10309,2419,-31608,32697,30259,31250,0,0,0
2849.28,0,-3834,2179,21,11095,2346,-32764,-32624,30366,31170,0,0,0
2849.3,0,-5583,2170,5,11929,850,-32764,-32391,30532,31092,0,0,0
2849.31,0,-5355,1591,-25,11829,-1279,-32764,-32170,30757,31020,0,0,0
2849.33,0,-5424,945,-124,11243,-3227,-32764,-31980,31034,30968,0,0,0
2849.34,0,-4586,499,251,11312,-4515,-32764,-31830,31355,30948,0,0,0
2849.36,0,-2973,-780,22,12107,-4488,-32764,-31738,31714,30951,0,0,0
2849.37,0,-1895,-1458,-43,13115,-2748,-32764,-31724,32102,30972,0,0,0
2849.39,0,-2689,-1230,127,12828,-932,-32764,-31805,32508,31007,0,0,0
2849.4,0,-3702,-1152,291,10785,-1488,-32764,-31972,-32661,31052,0,0,0
2849.42,0,-2821,-1027,794,7523,-2949,-32764,-32185,-32379,31105,0,0,0
2849.43,0,-1721,-1921,848,3229,-3313,-25550,-32389,-32190,31158,0,0,0
2849.45,0,-850,-3491,1154,-31,-2813,-13726,-32548,-32085,31188,0,0,0
2849.46,0,-636,-4834,1067,-2364,-1556,-1220,-32639,-32043,31193,0,0,0
2849.48,0,-1607,-5472,912,-3706,-942,10162,-32644,-32046,31181,0,0,0
2849.49,0,-2315,-5515,571,-4073,-1476,18966,-32572,-32088,31161,0,0,0
2849.51,0,-2635,-5725,275,-3341,-987,24696,-32442,-32167,31142,0,0,0
2849.52,0,-3410,-5640,694,-2133,-663,28639,-32283,-32283,31123,0,0,0
2849.54,0,-3981,-5079,618,-2178,-1032,32764,-32119,-32431,31117,0,0,0
2849.55,0,-3854,-4072,492,-2870,-717,32764,-31952,-32632,31114,0,0,0
2849.57,0,-3497,-3054,370,-3959,447,32764,-31801,32644,31111,0,0,0
2849.58,0,-2882,-2369,439,-4784,2029,32764,-31690,32329,31105,0,0,0
2849.6,0,-2161,-1432,964,-4863,3304,32764,-31642,31973,31090,0,0,0
2849.61,0,-1917,29,852,-4402,3824,32764,-31675,31620,31078,0,0,0
2849.63,0,-1679,1304,394,-4361,4835,32764,-31769,31302,31063,0,0,0
2849.64,0,-1897,2463,312,-4694,5490,32764,-31918,31028,31054,0,0,0
2849.66,0,-1944,2716,536,-5465,5005,32764,-32103,30801,31049,0,0,0
2849.67,0,-3365,3534,957,-5072,3368,26660,-32296,30624,31057,0,0,0
2849.69,0,-2142,3251,277,-2942,3859,19512,-32471,30501,31077,0,0,0
2849.7,0,-2864,3325,1225,-1314,5409,7987,-32612,30427,31086,0,0,0
2849.72,0,-2689,2640,-15,1614,3137,-4994,-32684,30402,31082,0,0,0
2849.75,0,-3001,1709,-111,5689,1985,-15864,-32666,30421,31063,0,0,0
2849.75,0,-2702,1277,-377,9966,905,-24925,-32576,30490,31019,0,0,0
2849.78,0,-2892,1505,-781,12268,948,-30702,-32432,30617,30957,0,0,0
2849.78,0,-3794,1754,-1075,13103,1487,-32764,-32276,30802,30887,0,0,0
2849.81,0,-5081,1948,-662,12311,1450,-32764,-32141,31028,30818,0,0,0
2849.81,0,-6717,1518,-587,10861,-519,-32764,-32031,31278,30767,0,0,0
2849.84,0,-6759,900,-341,9585,-3388,-32764,-31955,31542,30740,0,0,0
2849.84,0,-5420,259,-432,9985,-5741,-32764,-31900,31807,30744,0,0,0
2849.87,0,-3735,-75,-672,9666,-6101,-32764,-31876,32089,30773,0,0,0
2849.87,0,-3179,-329,-202,7328,-4800,-32764,-31898,32374,30817,0,0,0
2849.9,0,-3517,-280,6,4532,-3845,-31321,-31969,32630,30861,0,0,0
2849.9,0,-3004,-1484,185,1449,-3939,-24868,-32065,-32705,30892,0,0,0
2849.93,0,-1929,-3240,0,-371,-3597,-19944,-32156,-32561,30914,0,0,0
2849.93,0,-1040,-4938,14,220,-3050,-16523,-32240,-32463,30931,0,0,0
2849.96,0,-414,-5815,300,2970,-1252,-14369,-32317,-32387,30943,0,0,0
2849.96,0,-1090,-5076,24,4190,379,-9142,-32391,-32313,30961,0,0,0
2849.99,0,-2066,-3874,321,3144,557,-1116,-32445,-32261,30983,0,0,0
2849.99,0,-2743,-3294,659,1436,-1042,6253,-32454,-32244,31000,0,0,0
2850.02,0,-2830,-2687,678,-726,-2635,12439,-32412,-32264,31011,0,0,0
2850.02,0,-2745,-2576,659,-2864,-3526,17632,-32329,-32319,31018,0,0,0
2850.05,0,-2830,-2527,586,-4518,-3604,22628,-32213,-32413,31018,0,0,0
2850.05,0,-3345,-2710,386,-5972,-3628,27954,-32084,-32551,31015,0,0,0
2850.08,0,-4320,-2712,151,-6942,-4444,32507,-31945,-32742,31012,0,0,0
2850.08,0,-5959,-2202,-201,-7620,-5651,32764,-31814,32556,31020,0,0,0
2850.11,0,-5927,-2134,-396,-8697,-8024,32764,-31704,32257,31045,0,0,0
2850.11,0,-4181,-2601,-302,-8918,-8348,32764,-31635,31901,31101,0,0,0
2850.14,0,-2726,-2862,458,-7999,-7173,32764,-31638,31524,31174,0,0,0
2850.14,0,-1126,-2782,866,-5569,-5497,32764,-31720,31172,31247,0,0,0
2850.17,0,-1350,-1808,924,-1975,-4152,32764,-31862,30872,31312,0,0,0
2850.17,0,-1590,-602,687,1819,-3567,32554,-32038,30644,31349,0,0,0
2850.2,0,-1526,1082,311,4641,-3438,28244,-32221,30483,31360,0,0,0
2850.2,0,-1107,2112,171,6416,-3494,23056,-32396,30380,31346,0,0,0
2850.23,0,-204,3293,690,8019,-2373,14517,-32543,30325,31315,0,0,0
2850.23,0,-218,4468,1209,9159,-1473,3618,-32637,30315,31263,0,0,0
2850.26,0,-910,5264,1062,8928,-421,-7631,-32657,30342,31203,0,0,0
2850.26,0,-2001,5336,816,8399,675,-18837,-32605,30397,31143,0,0,0
2850.29,0,-2941,4880,363,7804,1264,-27220,-32489,30492,31085,0,0,0
2850.29,0,-3988,4202,113,6801,1208,-32764,-32332,30627,31034,0,0,0
2850.32,0,-5113,3355,-179,5908,585,-32764,-32167,30806,30987,0,0,0
2850.32,0,-5376,2218,215,5852,-300,-32764,-32009,31028,30954,0,0,0
2850.35,0,-5321,1274,37,5931,-2081,-32764,-31878,31295,30933,0,0,0
2850.35,0,-5153,931,3,5610,-3639,-32764,-31785,31599,30928,0,0,0
2850.38,0,-4151,395,263,5423,-5178,-32764,-31741,31919,30943,0,0,0
2850.39,0,-1898,308,112,4864,-4748,-32764,-31751,32233,30975,0,0,0
2850.41,0,-824,-583,217,3980,-2858,-32764,-31818,32532,31010,0,0,0
2850.42,0,-1319,-1191,927,1747,-2329,-32764,-31940,-32734,31034,0,0,0
2850.45,0,-892,-1632,1300,-611,-2756,-31674,-32100,-32510,31052,0,0,0
2850.45,0,-92,-2999,766,-2933,-1662,-21449,-32263,-32353,31058,0,0,0
2850.47,0,-675,-3839,342,-4496,760,-7595,-32382,-32268,31047,0,0,0
2850.48,0,-2354,-4314,72,-6106,1678,7215,-32434,-32255,31016,0,0,0
2850.5,0,-5166,-4035,-224,-6581,-791,19743,-32403,-32304,30973,0,0,0
2850.51,0,-6959,-4405,-1034,-6226,-5790,28664,-32292,-32416,30946,0,0,0
2850.53,0,-5223,-5899,-1270,-6306,-8660,30914,-32126,-32583,30941,0,0,0
2850.54,0,-3990,-6216,-418,-4565,-9248,28899,-31958,32751,30963,0,0,0
2850.56,0,-3120,-5231,1083,-788,-10104,25220,-31821,32543,31009,0,0,0
2850.57,0,-3091,-3173,2038,2451,-12771,20903,-31716,32359,31080,0,0,0
2850.59,0,-3353,-1161,1903,2329,-15726,18307,-31631,32204,31172,0,0,0
2850.6,0,-2608,-572,1177,1532,-15527,16522,-31563,32063,31293,0,0,0
2850.62,0,-2934,-546,456,1824,-11078,14204,-31512,31929,31412,0,0,0
2850.63,0,-4436,1642,1700,1506,-9323,11760,-31488,31811,31502,0,0,0
2850.65,0,-4909,1990,3074,836,-9971,7429,-31474,31714,31578,0,0,0
2850.66,0,-4144,-107,2064,149,-13329,2838,-31466,31647,31658,0,0,0
2850.68,0,-3138,1600,2476,-1779,-13670,636,-31458,31615,31762,0,0,0
2850.69,0,-5160,412,3330,-2814,-18916,647,-31452,31604,31879,0,0,0
2850.72,0,-3504,-388,1155,-2721,-15986,-54,-31456,31593,32032,0,0,0
2850.72,0,-3806,-713,2234,-1876,-10660,32,-31471,31588,32162,0,0,0
2850.74,0,-4742,-937,2919,-651,-11586,42,-31488,31586,32252,0,0,0
2850.75,0,-2759,-1393,3055,156,-12051,-1255,-31511,31585,32346,0,0,0
2850.77,0,-842,-536,3297,-269,-9642,-3137,-31539,31589,32437,0,0,0
2850.78,0,-1393,-169,3247,-1685,-7597,-3155,-31561,31612,32510,0,0,0
2850.8,0,-2980,-634,3384,-2280,-7262,-1975,-31582,31640,32571,0,0,0
2850.81,0,-3114,-1053,2905,-2347,-7537,-1328,-31605,31656,32626,0,0,0
2850.83,0,-1815,-991,3380,-2314,-7682,-1406,-31633,31676,32683,0,0,0
2850.84,0,-503,-498,3302,-2455,-6155,-1037,-31660,31694,32737,0,0,0
2850.86,0,-288,-751,3386,-2284,-4452,166,-31685,31709,-32754,0,0,0
2850.87,0,-744,-1461,3441,-1400,-3807,-63,-31704,31719,-32723,0,0,0
2850.89,0,-1065,-1455,3084,-552,-3641,-804,-31723,31725,-32694,0,0,0
2850.9,0,-1072,-1236,3215,-111,-3208,-993,-31741,31731,-32674,0,0,0
2850.92,0,-164,-1392,3091,58,-2612,-1281,-31755,31737,-32649,0,0,0
2850.93,0,-234,-1156,3275,214,-1066,-466,-31766,31745,-32631,0,0,0
2850.96,0,-588,-1452,3264,509,32,250,-31771,31749,-32626,0,0,0
2850.96,0,-961,-1233,3309,887,543,-73,-31770,31745,-32627,0,0,0
2850.98,0,-1168,-763,3485,962,974,376,-31769,31740,-32632,0,0,0
2850.99,0,-1331,-849,3526,931,1321,894,-31765,31734,-32640,0,0,0
2851.01,0,-1505,-971,3724,1130,1309,327,-31757,31723,-32648,0,0,0
2851.04,0,-1165,-648,3864,1071,1627,-257,-31752,31716,-32657,0,0,0
2851.04,0,-1547,-596,4037,989,2505,-354,-31742,31715,-32669,0,0,0
2851.07,0,-1837,-668,4096,1006,3233,-133,-31731,31712,-32685,0,0,0
2851.07,0,-1786,-788,4100,1347,4460,45,-31716,31708,-32710,0,0,0
2851.1,0,-2008,-868,3623,2245,6760,-794,-31697,31703,-32744,0,0,0
2851.1,0,-1754,-1040,2904,3475,11216,-1547,-31668,31702,32743,0,0,0
2851.13,0,-865,484,4709,2095,15990,-1666,-31622,31704,32659,0,0,0
2851.13,0,-1788,-1541,3884,3558,18262,-1437,-31568,31710,32544,0,0,0
2851.16,0,-3210,-367,4440,1950,19346,-1251,-31516,31721,32403,0,0,0
2851.16,0,-3647,-935,4283,693,18249,-543,-31474,31730,32250,0,0,0
2851.19,0,-3813,-557,4294,-648,15496,362,-31451,31738,32105,0,0,0
2851.19,0,-2879,-576,2775,-1702,15956,1139,-31438,31740,31981,0,0,0
2851.22,0,-3956,37,2192,-2753,17823,2224,-31438,31735,31851,0,0,0
2851.22,0,-4577,-328,2225,-3976,17402,3150,-31449,31719,31710,0,0,0
2851.25,0,-5540,-1330,2505,-4166,13252,3491,-31473,31695,31578,0,0,0
2851.25,0,-4970,-802,760,-4030,12190,4675,-31501,31659,31475,0,0,0
2851.28,0,-4061,-904,191,-1659,13145,4087,-31533,31617,31388,0,0,0
2851.28,0,-3574,-847,976,-848,13834,3581,-31573,31583,31290,0,0,0
2851.31,0,-2883,-441,682,-852,14685,2738,-31623,31557,31191,0,0,0
2851.31,0,-2108,-224,710,-425,18111,2709,-31681,31537,31087,0,0,0
2851.34,0,-1741,-650,1006,965,19757,916,-31761,31521,30969,0,0,0
2851.34,0,-447,-91,710,1964,22268,-505,-31859,31527,30842,0,0,0
2851.37,0,-11,306,-736,1599,25832,-2406,-31980,31549,30707,0,0,0
2851.37,0,71,526,-1688,519,29163,-2499,-32134,31580,30570,0,0,0
2851.4,0,-498,501,-2231,-1579,29824,-2027,-32327,31603,30441,0,0,0
2851.4,0,68,1268,-2598,-6125,31141,5,-32544,31607,30338,0,0,0
2851.43,0,-823,1751,-3402,-7853,27280,2432,32756,31567,30275,0,0,0
2851.43,0,-1307,2567,-3301,-7979,25205,2282,32532,31509,30253,0,0,0
2851.46,0,-2208,2129,-3869,-7574,23122,-549,32325,31447,30262,0,0,0
2851.46,0,-4115,1293,-5303,-7752,19271,-4188,32141,31387,30294,0,0,0
2851.49,0,-5093,360,-5538,-7833,15380,-4634,32003,31322,30339,0,0,0
2851.49,0,-4147,-67,-4228,-8132,10817,-1354,31901,31257,30391,0,0,0
2851.52,0,-1887,-369,-3488,-8011,6378,2910,31827,31192,30440,0,0,0
2851.52,0,-311,-723,-3140,-6061,3381,4497,31770,31145,30487,0,0,0
2851.55,0,664,-662,-3205,-2242,2082,3343,31728,31115,30518,0,0,0
2851.55,0,309,-3,-3761,1361,1733,598,31700,31112,30532,0,0,0
2851.58,0,-547,1032,-5152,3683,1764,-1494,31687,31125,30536,0,0,0
2851.58,0,-942,1975,-5830,4188,3551,-635,31677,31146,30529,0,0,0
2851.61,0,-1335,1992,-5230,2860,3760,1167,31654,31175,30526,0,0,0
2851.61,0,-1357,2002,-4682,1311,2365,1799,31624,31196,30531,0,0,0
2851.64,0,-686,1568,-4591,-121,813,676,31601,31214,30535,0,0,0
2851.65,0,-792,1536,-4532,-863,46,-465,31593,31218,30537,0,0,0
2851.67,0,-579,1299,-4496,-1500,-611,-833,31595,31209,30541,0,0,0
2851.68,0,-452,1050,-4430,-1558,-451,-427,31601,31199,30545,0,0,0
2851.7,0,-338,634,-4209,-1094,168,485,31604,31187,30548,0,0,0
2851.71,0,-461,391,-4023,-457,469,968,31601,31182,30552,0,0,0
2851.73,0,-678,339,-3936,386,176,901,31596,31182,30553,0,0,0
2851.74,0,-741,379,-4104,1173,-405,165,31591,31186,30552,0,0,0
2851.76,0,-497,450,-4287,1331,-540,-487,31592,31197,30550,0,0,0
2851.77,0,-480,733,-4169,1208,-502,-606,31596,31204,30544,0,0,0
2851.79,0,-504,910,-4209,861,-484,-462,31602,31209,30536,0,0,0
2851.8,0,-726,964,-4288,303,-588,-285,31606,31212,30533,0,0,0
2851.82,0,-1054,801,-4368,-41,-1296,94,31611,31214,30531,0,0,0
2851.83,0,-1572,770,-4431,-35,-3172,553,31620,31216,30527,0,0,0
2851.85,0,-2081,682,-4436,259,-5798,841,31639,31217,30516,0,0,0
2851.86,0,-2829,724,-4463,638,-10186,1542,31677,31223,30496,0,0,0
2851.88,0,-2798,413,-5179,-114,-14654,664,31742,31226,30466,0,0,0
2851.89,0,-1802,214,-4785,-670,-16391,-2760,31843,31226,30426,0,0,0
2851.91,0,-2374,696,-4007,-62,-17797,-6749,31971,31212,30398,0,0,0
2851.92,0,-3329,975,-4347,848,-20361,-9761,32126,31198,30372,0,0,0
2851.94,0,-4671,1390,-4173,924,-24855,-9752,32316,31193,30357,0,0,0
2851.95,0,-4702,1725,-4024,1375,-26769,-6775,32531,31198,30362,0,0,0
2851.97,0,-4535,1346,-3865,2329,-27470,-3517,32757,31210,30395,0,0,0
2851.98,0,-4456,1122,-4218,1760,-27670,-751,-32569,31224,30453,0,0,0
2852,0,-3825,1777,-2339,-2082,-27387,974,-32373,31228,30541,0,0,0
2852.01,0,-3442,1327,-3154,-3700,-28865,-314,-32197,31200,30663,0,0,0
2852.03,0,-3899,1875,-2638,-3942,-25172,-1322,-32032,31167,30818,0,0,0
2852.04,0,-1764,711,-1351,-5368,-21640,-1117,-31904,31143,30971,0,0,0
2852.06,0,-1300,-29,-1598,-3505,-20537,-712,-31808,31118,31125,0,0,0
2852.07,0,-2163,-322,-1047,-1159,-17368,-1294,-31737,31101,31274,0,0,0
2852.09,0,-2386,-901,-562,1521,-14564,-4066,-31682,31101,31397,0,0,0
2852.1,0,-3861,-1944,-1095,2985,-12802,-7478,-31636,31130,31497,0,0,0
2852.12,0,-3581,66,-74,3662,-12312,-10012,-31590,31186,31581,0,0,0
2852.13,0,-2516,565,-620,4408,-11202,-8289,-31547,31259,31661,0,0,0
2852.15,0,-2042,449,-905,6825,-8880,-5710,-31517,31326,31732,0,0,0
2852.16,0,-1897,1744,3440,5471,-15265,-5922,-31497,31378,31796,0,0,0
2852.18,0,-2096,-21,2438,5827,-19974,-5812,-31482,31419,31903,0,0,0
2852.19,0,-1873,516,1249,3803,-20236,-6472,-31478,31461,32046,0,0,0
2852.21,0,-2688,-398,987,1867,-18405,-7972,-31490,31509,32197,0,0,0
2852.22,0,-376,-1079,2388,-183,-18815,-8887,-31511,31564,32336,0,0,0
2852.24,0,-604,-1257,2450,-470,-19559,-8648,-31550,31629,32479,0,0,0
2852.27,0,-2769,-911,6682,-3724,-26654,-7860,-31606,31695,32626,0,0,0
2852.27,0,-433,-1396,1027,-2846,-29936,-8891,-31705,31762,-32727,0,0,0
2852.3,0,-1062,-1626,2146,264,-25967,-7423,-31849,31837,-32535,0,0,0
2852.3,0,-1418,-1314,3133,3918,-24129,-4818,-32001,31878,-32380,0,0,0
2852.33,0,-540,-1086,2704,7776,-23481,-2853,-32158,31877,-32257,0,0,0
2852.33,0,1249,-674,2244,9482,-22749,-2566,-32321,31838,-32150,0,0,0
2852.36,0,2123,508,2578,7957,-19135,-731,-32484,31778,-32070,0,0,0
2852.36,0,3219,-417,3471,7505,-13959,-591,-32630,31718,-32013,0,0,0
2852.39,0,3450,-582,3719,7864,-5897,-971,-32736,31660,-31986,0,0,0
2852.39,0,2952,-763,4584,8377,1366,3,32753,31598,-31977,0,0,0
2852.42,0,1973,-471,5290,8908,5599,861,32762,31532,-31989,0,0,0
2852.42,0,1437,-33,6011,8889,7497,907,-32734,31460,-32012,0,0,0
2852.45,0,1722,509,5268,8114,8621,863,-32675,31389,-32040,0,0,0
2852.45,0,1977,1310,4587,6522,9937,908,-32612,31323,-32078,0,0,0
2852.48,0,1786,1526,4090,4153,10959,1153,-32540,31273,-32120,0,0,0
2852.48,0,1072,1471,4145,2241,11332,1099,-32464,31238,-32164,0,0,0
2852.51,0,464,1142,4335,519,10841,11,-32387,31221,-32212,0,0,0
2852.51,0,-242,1123,4598,-636,9277,-1062,-32314,31217,-32255,0,0,0
2852.54,0,-385,950,4860,-1889,6292,-1599,-32252,31227,-32293,0,0,0
2852.54,0,-241,795,4669,-2270,3081,-1545,-32206,31246,-32315,0,0,0
2852.57,0,72,636,4132,-2397,1314,-1326,-32182,31267,-32325,0,0,0
2852.57,0,87,738,3846,-2090,1371,-1200,-32169,31288,-32326,0,0,0
2852.6,0,-288,725,4192,-2071,2063,-1228,-32157,31310,-32328,0,0,0
2852.6,0,-600,296,4395,-1060,2395,-641,-32140,31330,-32335,0,0,0
2852.63,0,-358,264,4283,-433,2784,-243,-32125,31338,-32346,0,0,0
2852.63,0,-288,9,4395,-324,3480,-682,-32107,31346,-32358,0,0,0
2852.66,0,-308,210,4308,-566,4267,-1262,-32082,31350,-32374,0,0,0
2852.66,0,-488,362,4759,-750,5095,-1118,-32057,31360,-32395,0,0,0
2852.69,0,-166,237,4084,69,7896,-1129,-32020,31370,-32424,0,0,0
2852.69,0,-109,884,3689,626,11513,-977,-31973,31378,-32468,0,0,0
2852.72,0,75,3577,5800,-1662,12863,1803,-31911,31379,-32533,0,0,0
2852.72,0,-956,-64,5455,-4612,10559,723,-31850,31380,-32602,0,0,0
2852.75,0,-1492,286,3985,-5774,10277,594,-31800,31398,-32664,0,0,0
2852.75,0,-1608,-763,4745,-7051,9205,-431,-31757,31423,-32717,0,0,0
2852.78,0,-1639,-799,4502,-10072,10196,-3408,-31718,31460,-32767,0,0,0
2852.78,0,-1804,-1890,3774,-10385,10497,-6914,-31671,31525,32711,0,0,0
2852.81,0,-2091,-955,3454,-7778,8182,-8953,-31625,31616,32651,0,0,0
2852.81,0,-3525,1238,4763,-7172,9552,-6129,-31590,31714,32591,0,0,0
2852.84,0,-3882,565,3976,-6874,11216,-46,-31558,31786,32522,0,0,0
2852.84,0,-2751,-844,3462,-5656,10112,1877,-31525,31810,32440,0,0,0
2852.87,0,-2588,-1709,3440,-3774,8124,1892,-31501,31811,32363,0,0,0
2852.87,0,-2854,-2250,3025,-3352,6372,1971,-31485,31805,32299,0,0,0
2852.9,0,-2639,-1940,3042,-3137,6658,1629,-31474,31798,32250,0,0,0
2852.9,0,-2386,-1812,2708,-3535,8755,1413,-31463,31791,32195,0,0,0
2852.93,0,-2456,-578,2675,-3193,11135,3050,-31452,31783,32129,0,0,0
2852.94,0,-2263,-68,2004,-3447,13783,6067,-31443,31762,32041,0,0,0
2852.96,0,-1919,-497,1256,-6969,23876,7619,-31440,31717,31930,0,0,0
2852.97,0,-1739,-1246,196,-9400,30350,10681,-31453,31658,31753,0,0,0
2852.99,0,-2512,-425,464,-10658,32764,11904,-31502,31570,31530,0,0,0
2853,0,-2047,-1377,2221,-6725,32764,8740,-31601,31463,31290,0,0,0
2853.02,0,-1654,-2161,1284,-3235,29359,6752,-31735,31388,31070,0,0,0
2853.03,0,-1271,-1510,1621,-614,26539,6578,-31883,31334,30893,0,0,0
2853.05,0,-1012,-1196,668,274,24605,4505,-32037,31304,30745,0,0,0
2853.06,0,586,-672,-1540,266,25993,5337,-32199,31290,30622,0,0,0
2853.08,0,1987,537,-2304,1362,31646,7164,-32383,31276,30512,0,0,0
2853.09,0,2472,436,-2748,817,32764,6642,-32624,31272,30408,0,0,0
2853.11,0,1325,692,-3189,-12,32764,7664,32628,31276,30338,0,0,0
2853.12,0,1379,1088,-3262,-3149,32764,6796,32329,31276,30316,0,0,0
2853.14,0,349,2034,-3706,-5898,31212,5125,32037,31261,30353,0,0,0
2853.15,0,-1354,2942,-5397,-2082,23648,2059,31788,31237,30431,0,0,0
2853.17,0,-3003,2131,-7641,-111,17332,-1590,31614,31228,30509,0,0,0
2853.18,0,-4139,1221,-8617,-680,14147,-1797,31498,31222,30577,0,0,0
2853.2,0,-1088,1989,-6607,-3235,12890,2181,31412,31210,30642,0,0,0
2853.21,0,872,477,-4045,-3552,11600,4767,31325,31200,30710,0,0,0
2853.23,0,1076,257,-3452,-1339,9627,2747,31243,31203,30776,0,0,0
2853.24,0,2208,1054,-3569,659,8657,1025,31180,31211,30836,0,0,0
2853.26,0,2072,1406,-4253,500,7171,-144,31130,31221,30882,0,0,0
2853.27,0,1525,1635,-4867,191,5205,-1027,31094,31227,30923,0,0,0
2853.29,0,876,1775,-5466,-447,2483,-1868,31071,31222,30953,0,0,0
2853.3,0,1170,1898,-5944,-1073,299,-1945,31066,31209,30973,0,0,0
2853.32,0,1621,1584,-5277,-1807,-277,-1054,31069,31192,30979,0,0,0
2853.33,0,1768,1374,-4784,-2603,-637,83,31072,31177,30985,0,0,0
2853.35,0,1584,755,-4498,-2791,-1101,392,31074,31166,30988,0,0,0
2853.36,0,1275,448,-4452,-1393,-1081,-655,31077,31156,30991,0,0,0
2853.38,0,1196,617,-4497,-327,-1021,-1135,31086,31146,30992,0,0,0
2853.39,0,982,754,-4420,1,-1448,-832,31090,31139,30985,0,0,0
2853.41,0,1430,661,-4019,98,-1710,-440,31102,31132,30979,0,0,0
2853.42,0,1339,515,-3931,297,-1271,-371,31111,31130,30968,0,0,0
2853.44,0,1312,437,-3849,340,-1215,-87,31118,31131,30959,0,0,0
2853.45,0,1116,476,-3957,459,-1102,95,31124,31130,30951,0,0,0
2853.47,0,1000,664,-3978,558,-1418,232,31129,31135,30944,0,0,0
2853.48,0,933,787,-4079,478,-1361,256,31134,31135,30934,0,0,0
2853.5,0,797,855,-4319,441,-1667,-236,31140,31140,30926,0,0,0
2853.51,0,1068,960,-4156,270,-1938,-492,31149,31141,30913,0,0,0
2853.53,0,949,971,-4265,-214,-2430,-292,31162,31139,30903,0,0,0
2853.54,0,989,966,-4361,-596,-2929,54,31174,31137,30892,0,0,0
2853.56,0,701,944,-4638,-632,-3195,-65,31189,31132,30878,0,0,0
2853.59,0,490,958,-4801,-312,-3788,-473,31206,31130,30860,0,0,0
2853.59,0,276,1087,-4775,-67,-4703,-571,31227,31125,30845,0,0,0
2853.62,0,-96,1059,-4807,-72,-6146,-689,31256,31119,30819,0,0,0
2853.62,0,-412,914,-4741,-236,-8234,-1485,31292,31112,30790,0,0,0
2853.65,0,-187,839,-4492,-970,-11129,-3652,31345,31100,30751,0,0,0
2853.65,0,-324,660,-4398,-881,-14259,-5464,31424,31080,30708,0,0,0
2853.68,0,-849,943,-4107,-1024,-17124,-6740,31533,31048,30655,0,0,0
2853.68,0,-1228,1116,-4030,-669,-19885,-7037,31667,31016,30599,0,0,0
2853.71,0,-1838,802,-4168,-291,-22186,-7194,31826,30988,30550,0,0,0
2853.71,0,-2548,1447,-4032,1745,-25294,-6277,32007,30968,30506,0,0,0
2853.74,0,-2050,2319,-3660,3702,-24531,-3530,32207,30969,30474,0,0,0
2853.74,0,-2237,1773,-3218,3788,-23136,-645,32397,30989,30453,0,0,0
2853.77,0,-3095,1155,-3757,2224,-24787,0,32569,31011,30452,0,0,0
2853.77,0,-2230,-434,-3521,-615,-25121,-1522,32744,31021,30482,0,0,0
2853.8,0,-2602,-828,-2836,-1435,-25802,-4560,-32613,31014,30539,0,0,0
2853.8,0,-3057,140,-2524,-724,-26579,-6903,-32427,31010,30626,0,0,0
2853.83,0,-3249,1280,-1909,2032,-26800,-4443,-32241,31023,30734,0,0,0
2853.83,0,-4132,314,-1227,3406,-27619,-1046,-32077,31047,30858,0,0,0
2853.86,0,-4391,271,-833,4266,-29800,-83,-31943,31059,30994,0,0,0
2853.86,0,-3802,496,-631,5156,-32429,-773,-31821,31067,31162,0,0,0
2853.89,0,-3944,316,203,3717,-32753,-2511,-31719,31077,31353,0,0,0
2853.89,0,-3931,1125,625,892,-32764,-3432,-31637,31092,31571,0,0,0
2853.92,0,-2501,-470,-512,-649,-26562,-654,-31593,31102,31803,0,0,0
2853.92,0,-2951,-1285,-326,-2103,-16828,-296,-31590,31104,32000,0,0,0
2853.95,0,-2788,-1593,-255,-1614,-11991,-2486,-31602,31101,32131,0,0,0
2853.95,0,-4007,87,1160,-460,-12446,-3285,-31611,31116,32224,0,0,0
2853.98,0,-660,1582,630,702,-14215,-6417,-31624,31138,32317,0,0,0
2853.98,0,-1810,1104,1528,3872,-19426,-6237,-31639,31177,32419,0,0,0
2854.01,0,-1183,2014,1518,4215,-17249,-2615,-31673,31208,32537,0,0,0
2854.01,0,-633,2301,3316,4069,-15561,-1680,-31723,31209,32644,0,0,0
2854.04,0,-1039,2598,3164,3304,-14484,1218,-31776,31202,32733,0,0,0
2854.04,0,-64,550,3949,3773,-13963,2905,-31839,31177,-32720,0,0,0
2854.07,0,1002,-71,2247,1642,-12411,-1271,-31906,31146,-32647,0,0,0
2854.07,0,1060,950,3574,941,-8203,-2246,-31964,31141,-32582,0,0,0
2854.1,0,1087,472,4576,923,-6072,-2808,-31998,31147,-32540,0,0,0
2854.1,0,855,478,4132,1089,-4409,-2143,-32022,31157,-32509,0,0,0
2854.13,0,-170,335,4694,1545,-2408,-1531,-32037,31164,-32490,0,0,0
2854.13,0,-690,643,4561,1135,-2499,-1275,-32046,31164,-32481,0,0,0
2854.16,0,-264,819,4930,464,-2298,-998,-32057,31164,-32471,0,0,0
2854.16,0,84,645,4986,-899,-1325,-999,-32065,31170,-32461,0,0,0
2854.19,0,184,299,5100,-1532,-535,-412,-32070,31179,-32450,0,0,0
2854.19,0,-298,-32,5368,-1520,720,238,-32070,31190,-32447,0,0,0
2854.22,0,-412,-424,4980,-1880,1717,-169,-32067,31199,-32442,0,0,0
2854.23,0,-1106,-823,5119,-1336,1718,358,-32057,31212,-32448,0,0,0
2854.25,0,-1292,-1302,4798,-487,1191,317,-32048,31220,-32453,0,0,0
2854.26,0,-1259,-914,4637,-141,898,120,-32042,31221,-32457,0,0,0
2854.28,0,-1005,-446,4687,14,981,878,-32036,31220,-32460,0,0,0
2854.29,0,-1146,-562,4297,-144,900,1283,-32032,31217,-32468,0,0,0
2854.31,0,-1327,-182,4258,-187,442,503,-32033,31212,-32473,0,0,0
2854.32,0,-1369,136,4278,-263,-184,280,-32032,31207,-32473,0,0,0
2854.34,0,-676,249,4103,-542,-108,-308,-32031,31210,-32472,0,0,0
2854.35,0,-517,88,3944,-455,207,-819,-32032,31214,-32471,0,0,0
2854.37,0,-917,372,3926,-563,372,-1035,-32027,31221,-32470,0,0,0
2854.38,0,-702,474,3928,-216,-268,-334,-32023,31228,-32472,0,0,0
2854.4,0,-217,524,3889,-208,-55,-122,-32025,31233,-32473,0,0,0
2854.41,0,-218,783,3798,-314,1379,57,-32023,31235,-32470,0,0,0
2854.43,0,-77,827,3943,-10,3967,784,-32015,31234,-32478,0,0,0
2854.44,0,-863,539,4310,-255,4841,361,-31994,31231,-32498,0,0,0
2854.46,0,-1196,588,4584,-419,5525,-450,-31970,31232,-32525,0,0,0
2854.47,0,-778,310,4330,-760,6487,-961,-31939,31236,-32554,0,0,0
2854.49,0,-603,323,4758,-859,8541,-1213,-31905,31249,-32591,0,0,0
2854.5,0,-1113,-48,4779,-960,10349,-1467,-31859,31262,-32640,0,0,0
2854.52,0,-1869,-362,4549,-1057,10952,-2089,-31808,31276,-32704,0,0,0
2854.53,0,-2671,-487,3800,-553,12272,-2264,-31757,31299,32763,0,0,0
2854.55,0,-2434,-593,4529,-276,14144,-3546,-31703,31321,32684,0,0,0
2854.56,0,-1037,-790,3836,415,17817,-4484,-31644,31350,32582,0,0,0
2854.58,0,-1522,-183,5804,-1332,15869,-4752,-31585,31387,32455,0,0,0
2854.59,0,-2203,-399,4809,-1769,15183,-6322,-31537,31433,32338,0,0,0
2854.61,0,-2239,-1165,3245,-2712,13971,-7302,-31500,31490,32226,0,0,0
2854.62,0,-2465,-874,2452,-1888,14670,-7253,-31472,31560,32117,0,0,0
2854.64,0,-2540,-961,2339,-1780,16017,-6830,-31453,31622,32000,0,0,0
2854.65,0,-2068,-1215,1819,-2707,16978,-6696,-31444,31687,31876,0,0,0
2854.67,0,-1769,-1093,1446,-2588,19324,-6107,-31448,31746,31741,0,0,0
2854.68,0,-1648,-922,604,-3506,22115,-5561,-31468,31804,31587,0,0,0
2854.7,0,-3087,-113,219,-4253,23196,-6207,-31507,31852,31415,0,0,0
2854.71,0,-4694,-237,-1016,-5541,21162,-5004,-31570,31895,31241,0,0,0
2854.73,0,-4337,-603,-1155,-5796,18268,-2642,-31645,31921,31085,0,0,0
2854.74,0,-2116,-752,-1575,-5772,18843,216,-31725,31924,30956,0,0,0
2854.76,0,-443,-1028,-1520,-5472,23157,1989,-31814,31903,30832,0,0,0
2854.77,0,156,-1089,-1451,-5315,25668,1704,-31941,31868,30694,0,0,0
2854.79,0,543,-356,-2000,-4855,26492,423,-32098,31834,30557,0,0,0
2854.8,0,-720,93,-2647,-4364,26536,-694,-32278,31809,30439,0,0,0
2854.82,0,-2279,462,-3504,-4704,24408,-1796,-32472,31787,30340,0,0,0
2854.85,0,-3102,242,-3854,-5924,22184,-1215,-32661,31760,30271,0,0,0
2854.85,0,-2162,-37,-3383,-7539,21187,-20,32696,31721,30231,0,0,0
2854.88,0,-1220,-250,-3107,-7879,21199,1047,32523,31666,30217,0,0,0
2854.88,0,-1035,-907,-2614,-7618,20968,659,32346,31603,30218,0,0,0
2854.91,0,-1693,-1172,-3534,-6528,18517,-739,32175,31542,30243,0,0,0
2854.91,0,-1755,-998,-4130,-6040,15521,-1262,32026,31489,30277,0,0,0
2854.94,0,-2127,-1087,-5011,-5403,13198,-1249,31904,31442,30320,0,0,0
2854.94,0,-1391,-1024,-5050,-4640,11497,-1071,31805,31398,30365,0,0,0
2854.97,0,-466,-901,-5134,-4020,10014,-1072,31719,31362,30410,0,0,0
2854.97,0,49,-402,-4875,-2665,8768,-295,31651,31329,30451,0,0,0
2855,0,246,-18,-4904,-1943,7156,626,31587,31309,30490,0,0,0
2855,0,150,351,-5221,-1914,5676,943,31534,31298,30526,0,0,0
2855.03,0,-75,614,-5558,-2131,4216,629,31494,31288,30553,0,0,0
2855.03,0,-345,746,-5502,-2315,3159,259,31461,31280,30582,0,0,0
2855.06,0,-476,756,-5336,-2608,1727,720,31438,31265,30603,0,0,0
2855.06,0,-99,336,-5414,-3464,152,951,31424,31251,30617,0,0,0
2855.09,0,-144,50,-5148,-3507,-966,208,31419,31233,30633,0,0,0
2855.09,0,38,69,-5022,-3070,-1609,-290,31424,31212,30638,0,0,0
2855.12,0,69,215,-4778,-2383,-1906,200,31433,31193,30643,0,0,0
2855.12,0,-171,317,-4439,-1750,-2328,1084,31443,31178,30645,0,0,0
2855.15,0,-466,267,-4338,-1061,-3026,1874,31454,31170,30642,0,0,0
2855.15,0,-796,200,-4206,5,-4158,2198,31466,31172,30633,0,0,0
2855.18,0,-1264,108,-4736,1332,-5679,2500,31484,31179,30617,0,0,0
2855.18,0,-719,-314,-5538,-1106,-7368,532,31513,31196,30590,0,0,0
2855.21,0,-705,-14,-4961,-1682,-8527,-1694,31557,31192,30564,0,0,0
2855.21,0,-759,94,-4974,-1588,-9718,-2773,31619,31175,30544,0,0,0
2855.24,0,-1140,302,-4882,-1040,-10661,-2769,31693,31154,30516,0,0,0
2855.24,0,-2218,497,-4755,-308,-12115,-2605,31779,31138,30490,0,0,0
2855.27,0,-3729,499,-3948,1601,-15075,-1961,31871,31127,30460,0,0,0
2855.27,0,-4371,496,-5979,914,-21219,-1005,31991,31131,30422,0,0,0
2855.3,0,-2962,764,-5624,-1126,-24440,230,32147,31132,30392,0,0,0
2855.3,0,-1700,672,-5554,-2308,-24271,560,32329,31119,30383,0,0,0
2855.33,0,-1499,480,-3944,-3335,-23296,-265,32508,31095,30401,0,0,0
2855.33,0,-2080,1041,-2737,-2768,-23379,-572,32681,31066,30443,0,0,0
2855.36,0,-2943,1756,-1961,-1184,-24205,351,-32685,31037,30498,0,0,0
2855.36,0,-3411,1519,-2146,1216,-24543,87,-32523,31021,30569,0,0,0
2855.39,0,-3394,839,-3401,3513,-24761,10,-32369,31020,30647,0,0,0
2855.39,0,-3552,-738,-5366,-1827,-22541,-1931,-32221,31029,30737,0,0,0
2855.42,0,-1923,62,-3065,-5332,-14605,-5171,-32094,31026,30850,0,0,0
2855.42,0,-3218,353,-1756,-4752,-12334,-6984,-31998,31020,30950,0,0,0
2855.45,0,-3261,68,-706,-3484,-12650,-6426,-31917,31033,31041,0,0,0
2855.45,0,-2858,1353,-1372,-1834,-8818,-5294,-31842,31053,31130,0,0,0
2855.48,0,-3377,1787,-115,-1345,-5412,-2083,-31793,31073,31194,0,0,0
2855.49,0,-4347,268,471,49,-8456,-313,-31767,31078,31240,0,0,0
2855.51,0,-4794,-572,1003,1018,-17456,691,-31738,31077,31300,0,0,0
2855.52,0,-3474,808,95,-675,-23426,-1471,-31697,31072,31413,0,0,0
2855.54,0,-3106,1008,373,-1064,-25173,-6039,-31642,31075,31575,0,0,0
2855.55,0,-5134,245,-429,496,-22237,-7991,-31596,31107,31762,0,0,0
2855.57,0,-5372,-83,699,3445,-23692,-8015,-31565,31160,31922,0,0,0
2855.58,0,-3484,1368,580,7777,-26926,-7319,-31553,31209,32089,0,0,0
2855.6,0,-3034,1235,-101,7699,-26357,-4268,-31570,31247,32266,0,0,0
2855.61,0,-2388,122,1175,6726,-26670,-935,-31617,31259,32441,0,0,0
2855.63,0,-358,-438,613,6881,-28315,-1811,-31694,31243,32612,0,0,0
2855.64,0,2518,-2184,-71,686,-27776,-6503,-31798,31227,-32753,0,0,0
2855.66,0,1991,1034,1002,-3075,-20352,-9816,-31908,31261,-32590,0,0,0
2855.69,0,1717,1961,3162,-4433,-14446,-7184,-31992,31329,-32470,0,0,0
2855.69,0,2772,290,3215,-4174,-11110,-4515,-32059,31391,-32382,0,0,0
2855.7,0,2006,-867,3748,-2052,-7556,-2604,-32119,31440,-32322,0,0,0
2855.72,0,462,-1688,4342,-1386,-7823,-1448,-32162,31470,-32284,0,0,0
2855.73,0,520,-1726,5246,574,-7584,-594,-32207,31486,-32248,0,0,0
2855.75,0,1601,-1156,4851,1820,-6097,645,-32256,31485,-32212,0,0,0
2855.76,0,1687,-956,4484,3104,-3007,1104,-32297,31473,-32190,0,0,0
2855.78,0,837,-414,4837,3328,-214,15,-32319,31449,-32183,0,0,0
2855.79,0,172,24,5932,2094,766,-90,-32322,31427,-32185,0,0,0
2855.81,0,750,-243,5481,712,1011,-609,-32316,31413,-32190,0,0,0
2855.82,0,628,-578,4893,-134,2719,-775,-32307,31411,-32198,0,0,0
2855.84,0,24,-525,4722,-282,3585,-529,-32289,31416,-32207,0,0,0
2855.85,0,-1031,-857,5137,-170,3540,454,-32263,31420,-32222,0,0,0
2855.87,0,-296,-845,4709,559,2175,1199,-32241,31419,-32234,0,0,0
2855.88,0,342,-936,4141,636,2505,852,-32226,31411,-32247,0,0,0
2855.9,0,-2282,-3057,5352,-4467,3879,-5830,-32208,31409,-32259,0,0,0
2855.91,0,-846,-411,4579,-2703,-904,-5703,-32182,31449,-32267,0,0,0
2855.93,0,-92,-100,3821,-3949,1075,-6924,-32178,31492,-32261,0,0,0
2855.94,0,-83,424,4036,-4679,3090,-6193,-32164,31554,-32264,0,0,0
2855.96,0,341,406,3816,-5041,3717,-5344,-32138,31617,-32273,0,0,0
2855.97,0,481,390,3251,-5499,4881,-4213,-32108,31681,-32288,0,0,0
2855.99,0,-84,-706,3771,-3898,5059,-2893,-32076,31738,-32314,0,0,0
2856,0,-2526,-1712,3205,-3459,3357,170,-32043,31782,-32337,0,0,0
2856.02,0,-1065,-2150,4478,-1641,475,-1049,-32024,31805,-32356,0,0,0
2856.03,0,-896,-1654,4223,-1824,-1970,-1724,-32020,31822,-32357,0,0,0
2856.05,0,-283,-570,4012,-2892,-1476,-1766,-32030,31846,-32353,0,0,0
2856.06,0,-792,-432,4352,-3338,-1805,-529,-32041,31870,-32342,0,0,0
2856.08,0,140,-1721,4542,-1135,-1165,-226,-32051,31896,-32333,0,0,0
2856.09,0,-3,-1498,3971,-102,-283,-219,-32060,31906,-32329,0,0,0
2856.11,0,344,-1427,4104,1487,764,-514,-32062,31909,-32327,0,0,0
2856.14,0,-245,-884,3626,1786,1840,-804,-32057,31902,-32331,0,0,0
2856.14,0,-526,-1146,3710,1256,1287,-1566,-32047,31897,-32335,0,0,0
2856.17,0,-501,-1541,3836,809,1565,-1302,-32038,31896,-32342,0,0,0
2856.17,0,-763,-1739,3948,1224,1522,-554,-32029,31897,-32348,0,0,0
2856.2,0,-672,-1303,3628,1786,1669,-837,-32020,31893,-32358,0,0,0
2856.2,0,-859,-1186,3849,2083,1746,-1310,-32010,31887,-32368,0,0,0
2856.23,0,-555,-1684,4725,2435,2979,-1533,-31999,31881,-32375,0,0,0
2856.23,0,-435,284,2320,1511,1920,-2471,-31980,31867,-32392,0,0,0
2856.26,0,-685,-1571,4042,1223,-425,-1600,-31968,31865,-32404,0,0,0
2856.26,0,-1586,-1650,4186,-129,-1324,-1956,-31970,31871,-32403,0,0,0
2856.29,0,-909,-948,3337,1444,-987,-2262,-31980,31885,-32394,0,0,0
2856.29,0,-1419,-797,3967,1455,-213,-2596,-31985,31890,-32389,0,0,0
2856.32,0,-1181,-592,3899,885,-411,-2655,-31987,31900,-32387,0,0,0
2856.32,0,-1402,-965,4275,696,462,-2401,-31990,31907,-32387,0,0,0
2856.35,0,-1110,-758,3499,1472,-538,-2055,-31991,31915,-32383,0,0,0
2856.35,0,-209,-855,2783,2129,-1090,-1570,-31995,31922,-32381,0,0,0
2856.38,0,-1553,-644,4350,2509,-740,-1438,-32000,31918,-32375,0,0,0
2856.38,0,-1467,-390,3743,2505,-1039,-1213,-32004,31912,-32374,0,0,0
2856.41,0,2674,-388,4618,-1326,-1191,3135,-32011,31902,-32363,0,0,0
2856.41,0,-346,423,3344,-3854,1530,5689,-32013,31891,-32359,0,0,0
2856.44,0,378,-1290,3694,-2063,2252,1615,-32005,31882,-32372,0,0,0
2856.44,0,-861,-1922,4238,-822,2484,-107,-31989,31885,-32382,0,0,0
2856.47,0,1109,-930,4636,-2248,2602,914,-31975,31892,-32396,0,0,0
2856.47,0,73,-1701,4138,-1014,3442,1105,-31958,31900,-32412,0,0,0
2856.5,0,-250,-850,4868,74,3528,1617,-31938,31900,-32432,0,0,0
2856.5,0,-789,-1200,4933,1240,2868,1688,-31919,31891,-32451,0,0,0
2856.53,0,-1072,-473,4698,1070,1856,1349,-31902,31875,-32471,0,0,0
2856.53,0,-1257,-549,4434,-33,170,966,-31890,31861,-32479,0,0,0
2856.56,0,-1209,-568,4038,-382,-1063,655,-31888,31856,-32481,0,0,0
2856.56,0,-1267,-788,4147,-745,-1916,156,-31895,31853,-32476,0,0,0
2856.59,0,-1017,-833,3964,-1420,-2461,-243,-31905,31856,-32465,0,0,0
2856.59,0,-826,-978,3793,-2054,-2874,-85,-31920,31864,-32450,0,0,0
2856.62,0,-735,-1043,4045,-1957,-2051,-335,-31934,31879,-32436,0,0,0
2856.62,0,-558,-1163,4265,-1337,-809,-505,-31947,31891,-32426,0,0,0
2856.65,0,-542,-1344,4080,-538,-422,-225,-31952,31903,-32420,0,0,0
2856.65,0,-494,-1329,4121,491,-8,92,-31953,31906,-32416,0,0,0
2856.68,0,-605,-1176,4267,945,-327,421,-31954,31905,-32415,0,0,0
2856.68,0,-441,-1234,4168,1052,-909,784,-31956,31898,-32415,0,0,0
2856.71,0,-394,-1209,4213,1066,-1688,1055,-31959,31884,-32408,0,0,0
2856.71,0,-432,-1162,4101,1193,-1898,1192,-31968,31872,-32398,0,0,0
2856.74,0,-349,-1050,4212,1190,-1788,1196,-31979,31857,-32387,0,0,0
2856.75,0,-363,-1241,4086,1927,-1655,1175,-31988,31842,-32376,0,0,0
2856.77,0,-386,-940,4070,2010,-1053,1065,-31996,31824,-32368,0,0,0
2856.78,0,-295,-966,4063,2362,-396,903,-32001,31805,-32361,0,0,0
2856.8,0,-306,-904,4146,2905,-405,925,-32005,31786,-32359,0,0,0
2856.81,0,-138,-1010,3966,3545,-564,929,-32007,31761,-32357,0,0,0
2856.83,0,-130,-996,3674,4043,142,815,-32010,31733,-32353,0,0,0
2856.84,0,-360,-922,3673,3586,1090,492,-32009,31705,-32358,0,0,0
2856.86,0,-1324,-598,4168,3151,1798,-107,-32003,31679,-32366,0,0,0
2856.87,0,-1374,-315,4208,1243,3969,-1057,-31988,31664,-32382,0,0,0
2856.89,0,-1136,-491,4239,887,4276,-1752,-31966,31663,-32404,0,0,0
2856.9,0,-957,-516,4211,963,5084,-2027,-31939,31669,-32431,0,0,0
2856.92,0,-1176,99,3750,-2241,8533,-2415,-31909,31677,-32462,0,0,0
2856.93,0,-888,-680,4281,-5308,9247,-352,-31860,31703,-32513,0,0,0
2856.95,0,-1244,-1056,4054,-1721,4527,539,-31815,31733,-32567,0,0,0
2856.96,0,-1480,-518,4163,488,2319,636,-31792,31739,-32595,0,0,0
2856.98,0,-721,-707,4726,1005,3157,-364,-31781,31735,-32614,0,0,0
2856.99,0,-712,-338,4431,-102,5134,-872,-31764,31732,-32636,0,0,0
2857.01,0,-674,-512,4078,-1037,6037,-1056,-31739,31739,-32671,0,0,0
2857.02,0,-887,-690,3968,-1037,6206,-1015,-31710,31753,-32714,0,0,0
2857.04,0,-551,-798,4317,-1613,2047,1460,-31687,31763,-32753,0,0,0
2857.05,0,-1232,-518,3608,-3427,3571,540,-31674,31765,32762,0,0,0
2857.07,0,-1916,-657,3829,-3114,2470,929,-31659,31777,32740,0,0,0
2857.08,0,-1624,505,4073,-4186,1270,-562,-31651,31783,32722,0,0,0
2857.1,0,-3937,-286,2604,-2559,-2600,-1448,-31649,31796,32719,0,0,0
2857.11,0,-3292,-362,3042,-6733,-3677,-1863,-31659,31819,32732,0,0,0
2857.13,0,-2225,-557,3177,-7728,-5617,-1662,-31674,31858,32758,0,0,0
2857.14,0,-1716,-1114,3006,-7403,-6760,-974,-31699,31902,-32741,0,0,0
2857.16,0,-1798,-1230,2894,-6316,-7058,-646,-31729,31941,-32701,0,0,0
2857.17,0,-1492,-1540,2990,-5852,-6413,-600,-31763,31976,-32658,0,0,0
2857.19,0,-1141,-1722,3046,-3649,-5196,-744,-31794,32007,-32622,0,0,0
2857.2,0,586,-2619,4534,425,-3123,-837,-31824,32032,-32593,0,0,0
2857.22,0,45,-1647,3242,1704,-1413,-689,-31839,32036,-32574,0,0,0
2857.23,0,-311,-1604,3218,46,-387,-485,-31848,32031,-32564,0,0,0
2857.25,0,-1033,-1091,3196,-795,1699,-563,-31852,32033,-32561,0,0,0
2857.26,0,-1416,-1444,3114,-1977,3560,-1424,-31843,32043,-32574,0,0,0
2857.28,0,-1674,-1586,3174,-2274,4583,-2751,-31827,32064,-32598,0,0,0
2857.29,0,-2070,-1036,3942,-2347,5942,-3527,-31809,32096,-32633,0,0,0
2857.31,0,-1727,-1775,4058,-834,6368,-4640,-31784,32130,-32672,0,0,0
2857.32,0,-2014,-1864,3492,-118,7159,-5369,-31763,32168,-32718,0,0,0
2857.34,0,-1436,-1622,3233,1782,7110,-5190,-31738,32206,-32765,0,0,0
2857.35,0,-1697,-1402,3507,-213,6569,-5307,-31717,32240,32729,0,0,0
2857.37,0,-2133,-1906,3722,-142,5117,-5352,-31704,32280,32684,0,0,0
2857.4,0,-2310,-1486,3796,1136,4348,-3359,-31695,32320,32642,0,0,0
2857.4,0,-2392,-772,3318,-1149,3454,-1193,-31687,32346,32616,0,0,0
2857.43,0,-2479,-1084,2659,-6741,4528,78,-31677,32362,32584,0,0,0
2857.43,0,-2010,-1802,2676,-7993,4399,464,-31662,32384,32537,0,0,0
2857.46,0,-747,-3573,4236,-4545,4323,1628,-31647,32408,32487,0,0,0
2857.46,0,-900,-3418,2864,-873,4369,1942,-31631,32409,32447,0,0,0
2857.49,0,-1982,-1838,2806,-1169,4798,267,-31614,32404,32411,0,0,0
2857.49,0,-2034,-1692,2578,-1444,4307,-598,-31603,32405,32375,0,0,0
2857.52,0,-1662,-2311,3160,-1112,3109,-625,-31594,32415,32339,0,0,0
2857.52,0,-1572,-1294,3030,-795,1190,543,-31589,32420,32315,0,0,0
2857.55,0,-1085,-2043,2788,-1021,470,2256,-31586,32420,32301,0,0,0
2857.55,0,-910,-2963,2980,-581,1918,2386,-31578,32406,32296,0,0,0
2857.58,0,-1088,-3429,2518,-268,1307,-1691,-31571,32393,32281,0,0,0
2857.58,0,-2174,-3211,2670,433,509,-2422,-31571,32405,32271,0,0,0
2857.61,0,-2036,-2446,2305,265,2002,-660,-31575,32421,32265,0,0,0
2857.61,0,-2605,-1813,2327,-554,3946,1051,-31573,32426,32249,0,0,0
2857.64,0,-3000,-2044,2353,-187,4009,3077,-31563,32422,32224,0,0,0
2857.64,0,-2570,-2289,1776,528,4736,3865,-31550,32399,32190,0,0,0
2857.67,0,-2809,-2704,1944,-768,4905,4833,-31533,32372,32157,0,0,0
2857.67,0,-3822,-2888,2517,-1105,4089,5691,-31516,32334,32115,0,0,0
2857.7,0,-4140,-4869,1669,-127,3310,3269,-31499,32290,32084,0,0,0
2857.7,0,-3548,-5118,1916,2285,2732,171,-31491,32268,32057,0,0,0
2857.73,0,-3028,-4437,2521,2644,960,-698,-31488,32261,32039,0,0,0
2857.73,0,-2624,-3352,2136,3618,-1024,-692,-31490,32266,32035,0,0,0
2857.76,0,-2177,-2565,1486,5092,-536,1360,-31491,32265,32046,0,0,0
2857.76,0,-2295,-2834,2308,6041,1429,3517,-31490,32249,32058,0,0,0
2857.79,0,-2600,-2924,2743,7143,231,4991,-31484,32213,32055,0,0,0
2857.79,0,-2556,-3360,2366,7282,-2041,4771,-31476,32166,32065,0,0,0
2857.82,0,-3156,-2658,2253,7842,-2536,4031,-31472,32118,32086,0,0,0
2857.82,0,-3171,-1477,2346,8319,-3804,4155,-31469,32076,32117,0,0,0
2857.85,0,-2774,27,2688,8168,-3717,2353,-31471,32030,32150,0,0,0
2857.85,0,-2458,1361,2903,5946,-3102,-275,-31475,31996,32185,0,0,0
2857.88,0,-2267,2476,3412,4327,-2875,-3186,-31480,31990,32214,0,0,0
2857.88,0,-2298,2587,3393,3292,-3081,-4158,-31487,32002,32238,0,0,0
2857.91,0,-2762,2698,3338,1912,-2671,-4105,-31496,32033,32260,0,0,0
2857.91,0,-2569,2729,3428,1651,-4171,-3553,-31504,32062,32283,0,0,0
2857.94,0,-1649,2413,2911,-215,-4732,-3386,-31517,32086,32318,0,0,0
2857.94,0,-1341,3083,3311,-2157,-2530,-1858,-31531,32112,32353,0,0,0
2857.97,0,-1541,2824,3329,-4126,-825,223,-31539,32132,32372,0,0,0
2857.97,0,-1388,1668,2961,-5972,669,1218,-31541,32140,32372,0,0,0
2858,0,-1465,685,2752,-7642,2708,1115,-31537,32146,32361,0,0,0
2858,0,-2257,-546,2846,-8930,2888,293,-31529,32158,32329,0,0,0
2858.03,0,-3370,-2598,2300,-8289,922,-1234,-31523,32174,32300,0,0,0
2858.04,0,-3357,-4282,2350,-7176,105,-2730,-31524,32206,32282,0,0,0
2858.06,0,-3829,-6153,2293,-5524,-862,-3743,-31528,32242,32272,0,0,0
2858.07,0,-3659,-7576,1944,-3556,-1819,-4136,-31535,32284,32269,0,0,0
2858.09,0,-3434,-7917,2342,-1117,-2197,-3744,-31548,32323,32275,0,0,0
2858.1,0,-3037,-7739,2243,1788,-2775,-2533,-31561,32353,32289,0,0,0
2858.12,0,-2337,-7449,2076,4623,-2643,-665,-31570,32368,32311,0,0,0
2858.13,0,-1784,-6400,2047,7239,-2448,329,-31579,32363,32341,0,0,0
2858.15,0,-1223,-4983,2005,9177,-1698,664,-31584,32342,32373,0,0,0
2858.16,0,-1229,-3408,2026,10380,-1020,1118,-31586,32312,32403,0,0,0
2858.18,0,-1255,-2158,2184,11141,-616,500,-31588,32274,32429,0,0,0
2858.19,0,-1972,-88,2611,11086,-895,-608,-31587,32237,32451,0,0,0
2858.21,0,-2085,1363,3091,10403,-1436,-878,-31589,32211,32472,0,0,0
2858.22,0,-2031,2394,3334,8939,-1898,-1559,-31596,32186,32500,0,0,0
2858.24,0,-2062,2769,3220,7002,-2083,-2411,-31601,32168,32523,0,0,0
2858.25,0,-2043,3017,3126,3741,-986,-2648,-31611,32165,32544,0,0,0
2858.27,0,-2052,3354,3540,2197,-1171,-2039,-31622,32172,32559,0,0,0
2858.28,0,-1856,3212,3410,934,-1441,-759,-31626,32178,32569,0,0,0
2858.3,0,-1506,3362,3314,-328,-1420,918,-31633,32182,32579,0,0,0
2858.31,0,-1184,3333,3234,-2297,-1139,2243,-31635,32178,32592,0,0,0
2858.33,0,-802,3312,3083,-4756,298,3195,-31637,32167,32595,0,0,0
2858.34,0,-1145,2742,3105,-6136,1233,4321,-31630,32162,32587,0,0,0
2858.36,0,-1540,1672,2782,-7147,1329,4714,-31623,32148,32575,0,0,0
2858.37,0,-1878,654,2742,-7864,1195,4418,-31610,32137,32558,0,0,0
2858.39,0,-2142,-212,2961,-8957,1410,3624,-31601,32132,32540,0,0,0
2858.4,0,-2950,-1179,3161,-10466,1527,3393,-31592,32132,32521,0,0,0
2858.42,0,-3690,-3009,3122,-11473,1675,3098,-31580,32142,32499,0,0,0
2858.43,0,-4122,-5696,2565,-10520,1367,1313,-31573,32152,32473,0,0,0
2858.45,0,-4506,-7322,2548,-8497,725,-1206,-31567,32174,32451,0,0,0
